time, attitudeRoll, attitudePitch, attitudeYaw, rotationRateX, rotationRateY, rotationRateZ, gravityX, gravityY, gravityZ, accelerationX, accelerationY, accelerationZ, direction
0.0, -0.13319951534558921, 0.4660978188139961, 0.03166065324436858, 0.0036903582513332367, 0.0019002067856490612, -0.007517897523939607, -0.11863940954208374, -0.4494037926197052, -0.8854156732559204, -0.0008826777338981628, 0.0054188072681427, 0.0038391351699829115, OutwardRot
0.020045000012032688, -0.13309105521443082, 0.4662945551384402, 0.031524587264232275, 0.010006576776504513, -0.0013360664015635848, -0.007831884548068047, -0.11853163689374924, -0.44957953691482544, -0.8853408694267273, 0.0014204457402229305, 0.0012610852718353271, 0.00510716438293457, OutwardRot
0.0400899999658577, -0.1330265713566937, 0.46644714905346446, 0.03146310335586626, 0.00550290569663048, 0.0023333888966590166, -0.003464946523308754, -0.11846545338630676, -0.44971582293510437, -0.8852805495262146, 0.0021477043628692636, -0.00520971417427063, 0.0030784010887145987, OutwardRot
0.06013499997789042, -0.132999636250085, 0.46657013099641853, 0.03143778864980426, 0.009210161864757534, -0.0016664698487147682, 0.0010888688266277309, -0.11843427270650864, -0.4498256742954254, -0.8852289319038391, 0.0003770291805267333, -0.003589272499084474, 0.0031030774116516113, OutwardRot
0.08017999998992309, -0.1330400028892303, 0.46665280392851444, 0.03153225944869828, -0.007201436907052994, 0.0012935390695929523, 0.0074019292369484875, -0.11846507340669632, -0.44989949464797974, -0.8851872682571411, -0.0004924386739730835, -0.003973186016082765, 0.005823254585266115, OutwardRot
0.10022600000957027, -0.13310490211007123, 0.4664421533044485, 0.0317089287264631, -0.00456264428794384, -0.00213731685653329, 0.011773205362260342, -0.11853509396314621, -0.4497113525867462, -0.8852734565734863, -0.0006665661931037903, -0.002437084913253784, 0.0064282417297363255, OutwardRot
0.1202709999633953, -0.13312237587223508, 0.46655207229888573, 0.031864319451187964, 0.011659601703286174, 0.004642501473426817, 0.002857017330825329, -0.11854399740695953, -0.44980955123901367, -0.8852224349975586, -0.0010696426033973694, 0.005229473114013672, 0.004118919372558594, OutwardRot
0.14031599997542799, -0.1330389077127475, 0.4666632663707438, 0.03190517990047693, -0.007947122678160664, 0.0025532899890094987, 5.875714123249054e-06, -0.11846347898244858, -0.4499088525772095, -0.8851827383041382, -0.0011654272675514221, 0.0027347803115844735, 0.004811644554138184, OutwardRot
0.16036099998746067, -0.13408678550151437, 0.47131197954062176, 0.032406713158449466, -0.01298542320728302, 0.0070373490452766444, -0.00131988525390625, -0.11911007761955261, -0.4540556073188782, -0.8829758167266846, -0.00016786903142929072, 0.006530582904815674, -0.0013778209686279293, OutwardRot
0.18040599999949336, -0.13452695181238356, 0.47187600698006776, 0.03262114008976954, 0.007405469194054604, 0.00997757539153099, -0.005044886842370033, -0.11946436017751694, -0.4545580744743347, -0.8826693892478943, 0.0016665160655975348, 0.013853728771209712, -0.0008144974708557132, OutwardRot
0.20045199996093288, -0.134412740014931, 0.46960366778154344, 0.03259332297070633, 0.010034143924713138, 0.00782073754817247, -0.005349095445126295, -0.11950165778398514, -0.45253288745880127, -0.8837043046951294, 0.0013223439455032349, 0.0041075944900512695, 0.001044392585754394, OutwardRot
0.22049699997296557, -0.13402749975433656, 0.46858749179280706, 0.03228158579377147, -0.004966245964169502, 0.00013479753397405148, -0.010586392134428024, -0.11922259628772736, -0.4516264796257019, -0.8842055797576904, 0.0017909631133079522, 0.0020262598991394043, 0.001942396163940429, OutwardRot
0.24054199998499826, -0.13387058621191017, 0.4681280475692572, 0.03213326304702482, 0.0007586181163787842, 0.00797223299741745, 8.851010352373123e-05, -0.11911153793334961, -0.45121651887893677, -0.8844298124313354, 0.0025496482849121094, 0.0020282864570617676, 0.0003203153610229491, OutwardRot
0.26058699999703094, -0.1336753893560924, 0.46722538746896763, 0.0320778632907594, 0.029329145327210426, -0.002904477994889021, -0.002058759331703186, -0.1189931258559227, -0.45041078329086304, -0.8848563432693481, 0.008321136236190792, 0.0015429854393005371, 0.0005637407302856447, OutwardRot
0.2806330000166781, -0.1335772208362685, 0.4671345675331551, 0.03202810895743375, 0.0031148511916398993, 0.0005618925206363199, 0.0014901692047715191, -0.11891170591115952, -0.4503296911716461, -0.8849085569381714, 0.004684418439865111, -0.005557149648666382, 0.0024012327194213867, OutwardRot
0.30067799997050315, -0.13353924032277342, 0.4669341775187652, 0.03208475297710421, -0.029574252665042877, -0.009228096343576908, 0.011510768905282017, -0.11889011412858963, -0.4501507580280304, -0.8850024938583374, 0.002633407711982727, -0.011213988065719604, 0.0037616491317749023, OutwardRot
0.32072299998253584, -0.13357819084609623, 0.46645591580466333, 0.03210267552900701, -0.004698731005191803, -0.0023013288155198097, 0.004157134331762791, -0.11895324289798737, -0.44972366094589233, -0.8852111101150513, 0.0005145296454429629, 0.000932157039642334, 0.007357716560363772, OutwardRot
0.3407679999945685, -0.1328023706393155, 0.4664881350336796, 0.03189080677844023, 0.003535229712724687, 0.009464288130402565, 0.00784804672002792, -0.11826452612876892, -0.44975242018699646, -0.8852887749671936, -0.005179077386856079, 0.00462302565574646, 0.004932999610900879, OutwardRot
0.3608130000066012, -0.1322923549559318, 0.4668326045570106, 0.031831783537429756, -0.00943063572049141, 0.009173851460218426, 0.0026043979451060295, -0.11779255419969559, -0.45006006956100464, -0.8851953744888306, -0.002187296748161316, 0.0020925402641296387, 0.008852601051330566, OutwardRot
0.38085899996804073, -0.1318497525787804, 0.4674766841019552, 0.03164099008564464, -0.030029920861124982, 0.010467158630490303, -0.00210426189005375, -0.1173626258969307, -0.4506351351737976, -0.884959876537323, -0.0002673789858818054, 0.006161868572235107, 0.002772986888885498, OutwardRot
0.4009039999800734, -0.13182614962640773, 0.4671952660757767, 0.03157203604404816, -0.03316632658243178, 0.00013280007988214493, -0.0023388490080833426, -0.11735839396715164, -0.45038390159606934, -0.885088324546814, -0.00013427436351776128, 0.010259389877319336, -0.010846734046936035, OutwardRot
0.4209489999921061, -0.1323526357814939, 0.4664149196598882, 0.031507448025768374, -0.03569286689162254, -0.024981342256069183, -0.018114615231752396, -0.11787071079015732, -0.44968703389167786, -0.8853745460510254, 0.004101186990737915, 0.003993093967437742, -0.00903463363647461, OutwardRot
0.4409940000041388, -0.13293515259641275, 0.46567764396518774, 0.03084132150426888, -0.06317628920078278, -0.04712896794080733, -0.034238304942846284, -0.11843035370111465, -0.4490284025669098, -0.8856340646743774, 0.0005256906151771548, -0.00020560622215270988, -0.011842131614685059, OutwardRot
0.4610390000161715, -0.13366303154263054, 0.46397242902767516, 0.029842635931908185, -0.13162659108638763, -0.06099686771631243, -0.03214947506785394, -0.11917681992053986, -0.44750410318374634, -0.8863052129745483, 0.0009364634752273556, -0.010534226894378662, 0.0013259649276733394, OutwardRot
0.4810832083458081, -0.13404832727771146, 0.4599414994737918, 0.028189606798075965, -0.2782057821750641, -0.04959014803171159, -0.05194448307156565, -0.11975841224193573, -0.44389569759368896, -0.8880397081375122, -0.007255733013153079, -0.04357683658599855, 0.016183078289031975, OutwardRot
0.5011282082996331, -0.13333069627004074, 0.4521908928806496, 0.0258293506187589, -0.4507204294204712, -0.03529546037316322, -0.021288000047206886, -0.11957487463951111, -0.43693727254867554, -0.8915086388587952, -0.005821846425533293, -0.008207380771636963, 0.014769136905670166, OutwardRot
0.5211732083116658, -0.13360982299775087, 0.44577343715725154, 0.02472527428559184, -0.20206226408481598, -0.044823165982961655, 0.0052249850705266, -0.12019477784633636, -0.43115586042404175, -0.8942359089851379, 0.0035871192812919604, 0.01799362897872924, 0.010263741016387943, OutwardRot
0.5412182083236985, -0.13361173221568698, 0.44682234133893367, 0.024160800066691628, 0.1289922147989273, 0.013840926811099058, -0.0438862517476082, -0.12013617157936096, -0.4321020245552063, -0.8937869668006897, -0.005687803030014036, 0.0390508770942688, 0.007007181644439697, OutwardRot
0.5612642083433457, -0.1333235530753207, 0.45228502560424505, 0.02402810117817259, 0.08068993687629697, 0.03071623668074609, -0.01763075590133667, -0.1195630356669426, -0.437021940946579, -0.8914687037467957, -0.0034685730934143053, 0.0031230151653289795, 0.012180984020233154, OutwardRot
0.5813092082971707, -0.13331007115345672, 0.4523278626970849, 0.02388760472678002, -0.14532136917114258, 0.008117832243442539, -0.01222975179553032, -0.11954852938652039, -0.43706047534942627, -0.8914517760276794, 0.007961012423038483, -0.01223456859588623, 0.006518304347991941, OutwardRot
0.6013542083092034, -0.13289687710733694, 0.44961936756643717, 0.023096233795348232, -0.04985848814249037, -0.009469456039369106, -0.017662905156612396, -0.11933659762144089, -0.43462276458740234, -0.8926711678504944, 0.010968677699565884, 0.019370079040527344, -0.008909642696380612, OutwardRot
0.6213992083212361, -0.1331410448271261, 0.4492689653219598, 0.02294739372378114, 0.1193249449133873, 0.00729765463620424, -0.024414703249931342, -0.11957476288080215, -0.43430715799331665, -0.8927928805351257, 0.0038521140813827515, 0.03388601541519165, -0.016875088214874275, OutwardRot
0.6414442083332688, -0.1335053936999338, 0.45095118386189637, 0.023024508083794575, 0.06844778358936313, -0.023591989651322372, -0.006117227021604776, -0.11980262398719788, -0.4358218312263489, -0.8920239210128784, 0.006185688078403473, 0.0004122555255889894, -0.012837529182434082, OutwardRot
0.6614902082947083, -0.13407558832664007, 0.4519865339482162, 0.02275040534846081, -0.021356938406825066, -0.04842985048890114, -0.02413605898618698, -0.12025085091590881, -0.43675345182418823, -0.8915078043937683, 0.004406131803989412, -0.0013264119625091553, -0.0006583333015441892, OutwardRot
0.681535208306741, -0.13415898402637133, 0.45161052297706955, 0.021970609918266767, 0.026684755459427834, -0.04059484601020813, -0.01761280000209809, -0.12034715712070465, -0.4364151656627655, -0.8916604518890381, -0.0002583041787147522, 0.02065894007682801, -0.00010895729064941406, OutwardRot
0.7015802083187737, -0.13434648638257907, 0.4511607286507991, 0.02154383895905479, 0.06248696148395536, -0.026806823909282684, -0.021852515637874603, -0.12054062634706497, -0.4360104203224182, -0.8918322920799255, -0.004642471671104433, 0.013082563877105713, 0.0006580352783203125, OutwardRot
0.7216252083308063, -0.13432185924979043, 0.45162201664971213, 0.020967641266445784, 0.028062941506505013, -0.015370791777968401, -0.030324144288897504, -0.12049171328544617, -0.43642550706863403, -0.8916358947753906, -0.003531716763973236, 0.0015652477741241462, 0.011661529541015625, OutwardRot
0.7416712083504535, -0.13403595455020598, 0.4515742996051527, 0.020228928318131677, -0.040225833654403687, -0.008823182433843613, -0.021818578243255622, -0.12023957073688507, -0.43638256192207336, -0.8916909098625183, -0.0030972212553024283, -0.010638892650604245, 0.013456046581268316, OutwardRot
0.7617162083042786, -0.13403274711364227, 0.4507095980460199, 0.01977478638395484, 0.021993331611156464, -0.011868773028254506, -0.014478639699518686, -0.12028708308935165, -0.43560439348220825, -0.8920649290084839, 0.001390606164932251, 0.0032618343830108643, 0.006292223930358884, OutwardRot
0.7817612083163112, -0.13410978015036054, 0.4516283102243877, 0.019690426836426068, 0.092375747859478, 0.014530514366924768, -0.016098069027066224, -0.1203022450208664, -0.4364311695098877, -0.8916586637496948, -0.0018748641014099115, 0.007842332124710083, 0.0028952956199645987, OutwardRot
0.8018062083283439, -0.13405585206177817, 0.4526698414813934, 0.019744715867652567, -0.0017803050577640533, 0.0005403968971222639, 0.0004785098135471344, -0.12019333988428116, -0.4373680353164673, -0.8912141919136047, 0.0003660842776298524, -0.017282813787460327, 0.007867693901062008, OutwardRot
0.8218522083479911, -0.13440866296879214, 0.4524139151761562, 0.019861019243014283, -0.03357618674635886, -0.01101214811205864, 0.006968214176595214, -0.12052275985479355, -0.4371378719806671, -0.8912826776504517, 0.0018399059772491462, -0.006816595792770386, 0.00280916690826416, OutwardRot
0.8418972083018161, -0.13449657370950538, 0.45236686449442076, 0.01991795690880668, 0.01656767725944519, 0.004022271372377874, 0.005166928283870222, -0.12060387432575226, -0.4370955526828766, -0.8912924528121948, -0.0017105787992477417, 0.012473970651626587, -0.0023843050003051758, OutwardRot
0.8619422083138488, -0.13455357642869883, 0.45229197761463624, 0.02022955656302478, -0.02161499857902527, 0.0008083484135568145, 0.0164380744099617, -0.12065906822681427, -0.4370281994342804, -0.8913179636001587, 8.412450551986694e-05, -0.0043475329875946045, 0.0034700632095336914, OutwardRot
0.8819872083258815, -0.1347122139822449, 0.45157799530823517, 0.020344149701950094, -0.07247138768434525, -0.007777130231261251, 0.009366202168166637, -0.1208423376083374, -0.4363858997821808, -0.8916078209877014, 0.0033191516995429993, -0.003555506467819214, 0.005728304386138916, OutwardRot
0.9020322083379142, -0.13481523623488142, 0.4507209397283177, 0.02036601864024848, -0.04441072419285774, -0.007226578891277316, 0.011438215151429173, -0.12098442018032074, -0.43561458587646484, -0.8919656276702881, 0.001950606703758239, 0.009528160095214844, 0.0007455348968505859, OutwardRot
0.9220782082993537, -0.13489858237536873, 0.45021426613340504, 0.020549085758084933, 0.0016473159193992615, 0.005313484929502009, 0.009046204388141636, -0.1210884302854538, -0.43515846133232117, -0.8921741843223572, 0.0003761500120162964, 0.01021644473075867, -0.0009380578994750977, OutwardRot
0.9421232083113864, -0.13500167745112876, 0.4501399869422047, 0.020740802284967448, -0.02412529289722442, -0.00547229778021574, 0.009306014515459538, -0.12118475139141083, -0.4350915849208832, -0.8921936750411987, 0.00025885552167892456, -0.00042477250099182145, 0.004528880119323729, OutwardRot
0.9621682083234191, -0.13494960856044663, 0.44946796411549594, 0.020671343988369957, -0.05759989470243454, 0.0034404273610562086, 0.003346049226820469, -0.12117761373519897, -0.43448638916015625, -0.8924895524978638, -0.0006485581398010254, 0.00275421142578125, 0.0022917985916137695, OutwardRot
0.9822132083354518, -0.1348528302895734, 0.44818458938764477, 0.02059214089316679, -0.060788899660110474, -0.0010781774763017893, 0.007671138271689418, -0.12116611003875732, -0.43333014845848083, -0.8930530548095703, -0.0005074739456176758, 0.0025287270545959464, -4.38690185546875e-05, OutwardRot
1.0022592082968913, -0.1347546123496984, 0.44651434686172126, 0.020532801827193116, -0.08752837032079697, 0.0017911123577505357, 0.010214723646640778, -0.12117546051740646, -0.4318242371082306, -0.8937808871269226, -0.0003607943654060365, -0.0005182921886444092, -0.0003535747528076172, OutwardRot
1.022304208308924, -0.13465888776513174, 0.44401777622154043, 0.020373516236751703, -0.17457205057144165, 0.003223075065761806, 0.0096411919221282, -0.12123426049947739, -0.42957112193107605, -0.8948580622673035, -0.0012022629380226135, -0.01296427845954895, 0.002813994884490967, OutwardRot
1.0423492083209567, -0.13438125690816607, 0.4397024218928385, 0.01990038359742821, -0.2807413637638092, 0.0057966019958257675, 0.0013468898832798, -0.12123304605484009, -0.42567020654678345, -0.8967203497886658, -0.0022715851664543143, -0.02017635107040406, 0.009238719940185547, OutwardRot
1.0623942083329894, -0.1337611185589371, 0.43361879409829546, 0.01887495725784611, -0.3811422884464264, 0.0350707918405533, -0.008127381093800064, -0.12102005630731583, -0.42015743255615234, -0.8993452787399292, 0.0005213990807533262, -0.015099525451660156, 0.0025252103805541992, OutwardRot
1.0824402082944289, -0.13203643190099765, 0.42403481282933886, 0.01728860373360299, -0.6672523021697998, 0.07394050061702728, -0.0012030862271785732, -0.1199934259057045, -0.41144126653671265, -0.9035030007362366, -0.0018632560968399048, -0.021725237369537347, 0.009841501712799072, OutwardRot
1.1024852083064616, -0.12873357098289978, 0.4063890228542266, 0.014308842104957142, -1.2470922470092773, 0.15148866176605225, -0.03854475170373918, -0.11792242527008057, -0.39529502391815186, -0.9109534025192261, -0.01614128798246383, -0.06480324268341064, 0.019748568534851067, OutwardRot
1.1225302083184943, -0.12290797241584558, 0.37507647344102885, 0.008642290124358706, -1.904672384262085, 0.21050624549388885, -0.08004007488489151, -0.11407564580440521, -0.3663436770439148, -0.9234603643417358, -0.014418616890907288, -0.0774887204170227, 0.02981412410736084, OutwardRot
1.142575208330527, -0.11611750332712395, 0.3330538548739666, 0.0015741245733405097, -2.2742817401885986, 0.21400412917137146, -0.0745768994092941, -0.10949022322893143, -0.32693058252334595, -0.938684344291687, -0.002921275794506073, -0.06747859716415408, 0.03367030620574951, OutwardRot
1.1626212083501741, -0.10989523117627983, 0.287374637877401, -0.005316884515826155, -2.3042635917663574, 0.2137705683708191, -0.06753124296665194, -0.10517656803131104, -0.28343549370765686, -0.9532063007354736, -0.007082335650920865, -0.04870256781578064, 0.024068117141723633, OutwardRot
1.1826662083039992, -0.1032695563895152, 0.24116272554429083, -0.011943037270692795, -2.400421142578125, 0.2767716646194458, -0.07286155968904498, -0.10010288655757904, -0.23883186280727386, -0.9658875465393066, -0.018106952309608466, -0.04775871336460115, 0.01569223403930664, OutwardRot
1.2027112083160318, -0.09550621941988865, 0.18874995096577227, -0.019160773548385628, -2.928105592727661, 0.3449893593788147, -0.11696278303861618, -0.09366744011640546, -0.18763118982315063, -0.9777632355690002, -0.014776773750782013, -0.10140080749988556, 0.01346880197525025, OutwardRot
1.2227562083280645, -0.08727754176214016, 0.12361605461318358, -0.027955770624836708, -3.5943140983581543, 0.3293626308441162, -0.1584102064371109, -0.08650163561105728, -0.12330146878957748, -0.9885920286178589, 0.010757014155387878, -0.13072684407234192, 0.02127641439437867, OutwardRot
1.2428012083400972, -0.08048679264775668, 0.04879002755076291, -0.03803064857007299, -3.8294272422790527, 0.25690391659736633, -0.2147059291601181, -0.08030424267053604, -0.04877067357301712, -0.9955765604972839, 0.02373991906642913, -0.07188058644533157, 0.01709145307540893, OutwardRot
1.2628472083015367, -0.07602333312434154, -0.02437099502649052, -0.048975824053931985, -3.4279353618621826, 0.18109919130802155, -0.2767428755760193, -0.07592757046222684, 0.024368582293391228, -0.9968155026435852, 0.010818324983119965, 0.02532927505671978, 0.004948496818542482, OutwardRot
1.2828922083135694, -0.0739665832068112, -0.08701530150696751, -0.05836365575180992, -2.959383487701416, 0.07812231779098508, -0.18889164924621582, -0.07361955940723419, 0.08690553158521652, -0.993492603302002, 0.01769610494375229, 0.05931941419839859, -0.011268079280853271, OutwardRot
1.3029372083256021, -0.07382623616514963, -0.14714493801152778, -0.06677871283169416, -3.1890735626220703, 0.0362718775868416, -0.21999196708202362, -0.07296212762594223, 0.14661452174186707, -0.9864991903305054, 0.016321510076522827, -0.0065693855285644505, -0.0073667168617248535, OutwardRot
1.3229822083376348, -0.07549516056346785, -0.21577892079520808, -0.07719615826261017, -3.673811912536621, -0.001563233905471862, -0.2758636176586151, -0.07367438822984698, 0.21410834789276123, -0.9740275740623474, 0.008580394089221951, -0.07838144898414612, 0.010175645351409912, OutwardRot
1.3430282082990743, -0.07860304633403942, -0.2908780962023816, -0.08895088410438294, -3.8358328342437744, -0.00888462550938129, -0.2670527696609497, -0.07522360235452652, 0.2867935597896576, -0.9550344944000244, -0.0031607896089553833, -0.05064854025840757, 0.023592233657836907, OutwardRot
1.363073208311107, -0.08312743644119884, -0.36663087442530645, -0.10095477589073118, -3.7902681827545166, -0.05719910562038424, -0.26661449670791626, -0.07751347124576566, 0.3584722578525543, -0.9303167462348938, -4.694610834121704e-05, -0.004956662654876709, 0.0269964337348938, OutwardRot
1.3831182083231397, -0.08919416865575254, -0.44167793244045644, -0.11423108182295161, -3.8382859230041504, -0.027187542989850044, -0.3119332194328308, -0.08052784204483035, 0.42745697498321533, -0.9004420042037964, -0.002647817134857177, -0.02184787392616272, -0.005411267280578615, OutwardRot
1.4031632083351724, -0.09686246989623057, -0.5224413203066958, -0.13009570890720462, -4.370837211608887, -0.0037262917030602707, -0.3314027786254883, -0.08381015807390213, 0.4989972710609436, -0.8625413179397583, 0.005425766110420225, -0.10413038730621338, 0.0005570650100708008, OutwardRot
1.423209208296612, -0.10708438107366323, -0.6157908747505754, -0.14943439541695622, -5.069167137145996, 0.012406758032739162, -0.34918856620788574, -0.0872478187084198, 0.5776042938232422, -0.8116409778594971, -0.00010874122381210331, -0.1465282440185547, 0.00960850715637207, OutwardRot
1.4432542083086446, -0.12192505122468013, -0.7180260675079368, -0.1739018725032488, -5.1788811683654785, 0.019405106082558632, -0.3624202609062195, -0.09159513562917707, 0.6578993797302246, -0.747515082359314, -0.0019717514514923087, -0.10839992761611938, 0.004198372364044188, OutwardRot
1.463300833303947, -0.14087037904462363, -0.8139440083807172, -0.20086537749967684, -4.406036376953125, -0.04528581723570824, -0.3012286126613617, -0.09640713781118396, 0.727000892162323, -0.6798347234725952, -0.0033700689673423767, -0.008968174457550045, -0.0037437081336975085, OutwardRot
1.4833458333159797, -0.16207112675045443, -0.8872578630651409, -0.22621216459295343, -3.0729563236236572, -0.1799032986164093, -0.2585473358631134, -0.10190697014331818, 0.7753428816795349, -0.6232642531394958, 0.003182612359523773, 0.09303468465805051, -0.01301199197769165, OutwardRot
1.5033918333356269, -0.18457965286648179, -0.9367748582664593, -0.24883887088350262, -2.1953184604644775, -0.2537755072116852, -0.24438664317131042, -0.1087232157588005, 0.8056517243385315, -0.5823268294334412, 0.004032671451568602, 0.05164802074432373, -0.023981213569641106, OutwardRot
1.5234368333476596, -0.2085764533506606, -0.9797075384815784, -0.27235961237834194, -2.3872792720794678, -0.20162415504455566, -0.24363748729228973, -0.11539150774478912, 0.8303344249725342, -0.5451875925064087, 0.0018661171197891235, -0.07830506563186646, -0.013162016868591309, OutwardRot
1.5434818333014846, -0.23730869505867788, -1.031045678302441, -0.30266170420272726, -2.954554319381714, -0.11412443965673447, -0.19357328116893768, -0.12081672251224518, 0.8578368425369263, -0.499519020318985, -0.0016960948705673218, -0.13721007108688354, 0.016990303993225098, OutwardRot
1.5635268333135173, -0.2735397447909348, -1.08980423694632, -0.3420271593773466, -3.0952768325805664, -0.08450780063867569, -0.1920844465494156, -0.12498324364423752, 0.8865363597869873, -0.44545748829841614, -0.0022597908973693856, -0.05998307466506958, 0.01195526123046875, OutwardRot
1.5835728333331645, -0.31774672556756206, -1.144305274052171, -0.38902827646202326, -2.6329188346862793, -0.10990326851606369, -0.19030672311782837, -0.1292443424463272, 0.9104229211807251, -0.3929707109928131, -0.006528347730636599, 0.020515739917755134, 0.003917336463928223, OutwardRot
1.6036178333451971, -0.3641484607810736, -1.1870087174115653, -0.436885612389865, -2.0028717517852783, -0.12925103306770325, -0.16256649792194366, -0.133356511592865, 0.9272530674934387, -0.3498825430870056, -0.00548321008682251, 0.052193284034729025, -0.00288546085357666, OutwardRot
1.6236628332990222, -0.40599734881589816, -1.2168742643294808, -0.4789646086346899, -1.3223772048950195, -0.1274627298116684, -0.10391915589570999, -0.13687638938426971, 0.938020646572113, -0.3184055685997009, -0.006479918956756592, 0.04981809854507446, -0.0028530359268188477, OutwardRot
1.6437078333110549, -0.4342094782019583, -1.234102101627152, -0.5062498669414148, -0.6385824680328369, -0.12277866899967194, -0.04903890192508699, -0.13898396492004395, 0.9438519477844238, -0.29971152544021606, -0.006478071212768552, 0.06217527389526367, 0.012800455093383784, OutwardRot
1.663753833330702, -0.447639876025292, -1.2400736076790548, -0.5179641771734155, -0.08940123021602628, -0.11226536333560944, -0.0330081917345524, -0.14055439829826355, 0.945807933807373, -0.2927316725254059, -0.004220992326736452, 0.058907032012939474, 0.010993361473083496, OutwardRot
1.6837988333427347, -0.4459364523452987, -1.2374172825424965, -0.5140727921648959, 0.3975086510181427, -0.08339739590883255, 0.03466003015637398, -0.1411386877298355, 0.9449419975280762, -0.29523640871047974, -0.005559295415878296, 0.04127925634384154, 0.01886916160583496, OutwardRot
1.7038438332965598, -0.42847745574457585, -1.2252985383371815, -0.4939603946097778, 1.0018550157546997, -0.0726672559976578, 0.049516208469867706, -0.14071065187454224, 0.9409070014953613, -0.30804938077926636, -0.004034206271171568, 0.06798881292343137, 0.02846255898475647, OutwardRot
1.7238888333085924, -0.3989959487497761, -1.2016744667159165, -0.46085956987844984, 1.6027066707611084, -0.07715709507465363, 0.06485240161418915, -0.14016716182231903, 0.9326445460319519, -0.3324567675590515, -0.003128141164779663, 0.08800065517425537, 0.03140076994895935, OutwardRot
1.7439348333282396, -0.3647662851524135, -1.1689222152731644, -0.42245091338731117, 1.8898507356643677, -0.059349533170461655, 0.0454217866063118, -0.139533132314682, 0.9203295707702637, -0.36540940403938293, -0.002571970224380493, 0.061649739742279074, 0.04808759689331053, OutwardRot
1.7639798333402723, -0.33588656968029007, -1.1344871168112647, -0.39007350653557316, 1.7478299140930176, -0.006380378268659115, 0.018149763345718384, -0.1392906904220581, 0.9063175320625305, -0.3989817500114441, -0.004523381590843202, 0.0010920166969299316, 0.04746499657630919, OutwardRot
1.7840248332940973, -0.31223741123129845, -1.103467404696114, -0.3644955878918404, 1.5796775817871094, 0.06224467977881434, 0.04152558371424675, -0.1383894383907318, 0.8927748203277588, -0.42872071266174316, -0.009071499109268185, -0.02293229103088379, 0.050516366958618164, OutwardRot
1.80406983330613, -0.2903879824242857, -1.0718644520856602, -0.34161469468786, 1.8308106660842896, 0.08757545053958893, 0.03682175651192665, -0.1370025873184204, 0.8780941367149353, -0.45845505595207214, -0.01099240779876709, 0.03154337406158446, 0.038151681423187256, OutwardRot
1.8241158333257772, -0.2667717327192333, -1.031118274987241, -0.3162440045561097, 2.450253963470459, 0.06176622211933136, 0.05238260701298714, -0.13546304404735565, 0.8578741550445557, -0.4956829249858856, -0.005299255251884462, 0.09927904605865479, 0.03321954607963562, OutwardRot
1.84416083333781, -0.24324186463959113, -0.9789950441908865, -0.2893023294141214, 2.8729496002197266, 0.016102731227874756, 0.02441675402224064, -0.13435997068881989, 0.8299371600151062, -0.5414347052574158, 0.001318618655204773, 0.07948654890060428, 0.03704017400741576, OutwardRot
1.8642058333498426, -0.22329865901416424, -0.923153446468107, -0.2650791783257763, 2.816866397857666, 0.010407142341136936, 0.06883839517831802, -0.13360115885734558, 0.7975080609321594, -0.5883294939994812, 0.006464928388595581, -0.0111006498336792, 0.052547574043273926, OutwardRot
1.8842508333036676, -0.20495998151576045, -0.8676484656040127, -0.24221838588781572, 2.9686546325683594, 0.03351723402738571, 0.1482585072517395, -0.13160569965839386, 0.762810468673706, -0.6330877542495728, 0.0025010854005813607, -0.02661973237991333, 0.052429795265197754, OutwardRot
1.9042968333233148, -0.18688078579971595, -0.8025897055802717, -0.21816760006903968, 3.853484869003296, -0.017095340415835387, 0.15852230787277222, -0.12909895181655884, 0.7191579341888428, -0.6827483177185059, 0.0019017010927200317, 0.08354586362838748, 0.01885366439819336, OutwardRot
1.9243418333353475, -0.170325287928564, -0.7171626841511861, -0.19223284241164532, 4.758793354034424, -0.12007806450128555, 0.17373360693454742, -0.12774989008903503, 0.6572489142417908, -0.7427676916122437, 0.008441418409347534, 0.16577965021133423, 0.05340611934661867, OutwardRot
1.9443868333473802, -0.15823301179730462, -0.6222443177526575, -0.1678767194053479, 4.680068492889404, -0.1617182344198227, 0.15415267646312714, -0.1280399113893509, 0.5828602910041809, -0.8024211525917053, 0.007464960217475891, 0.0389505624771118, 0.08129072189331052, OutwardRot
1.9644318333012052, -0.15043776730514194, -0.5401861835627862, -0.14932368445308758, 3.5807788372039795, -0.058451760560274124, 0.11057111620903015, -0.1285312920808792, 0.5142956972122192, -0.8479267358779907, -0.009560748934745785, -0.11814701557159424, 0.09722483158111572, OutwardRot
1.9844778333208524, -0.1440067722885962, -0.478446151975941, -0.13661861146756005, 2.828458786010742, 0.06450330466032025, 0.07680580765008926, -0.12739506363868713, 0.46040037274360657, -0.8785226345062256, -0.023346513509750366, -0.09490662813186643, 0.07337737083435061, OutwardRot
2.004522833332885, -0.1382091872302962, -0.419378998857942, -0.1258117006612332, 3.3359487056732178, 0.022577159106731415, 0.07257910817861557, -0.1258307546377182, 0.4071933329105377, -0.9046326279640198, -0.011559367179870605, 0.08760336041450503, 0.030242979526519775, OutwardRot
2.0245678333449177, -0.13442220919437903, -0.34387102919598733, -0.1122000757593563, 4.281091213226318, -0.14960406720638275, 0.17039167881011963, -0.12617191672325134, 0.3371340036392212, -0.9329637289047241, 0.00980839133262634, 0.19002661108970642, 0.043605208396911635, OutwardRot
2.0446128332987428, -0.13373179035954796, -0.25621255781138513, -0.09552274615089065, 4.445189476013184, -0.23853880167007446, 0.20123128592967987, -0.1289810836315155, 0.25341856479644775, -0.9587194323539734, 0.007795795798301697, 0.07134947180747986, 0.08080500364303589, OutwardRot
2.06465883331839, -0.1345648888010336, -0.1755534890154446, -0.08169032476090612, 3.5939815044403076, -0.13430291414260864, 0.04527192562818526, -0.13209712505340576, 0.17465314269065857, -0.9757287502288818, -0.02186402678489685, -0.09843552112579348, 0.07178288698196411, OutwardRot
2.0847038333304226, -0.13499330990058014, -0.11423117813488659, -0.07314170938747169, 2.6592845916748047, -0.05984240770339968, -0.0014708098024129868, -0.13370655477046967, 0.1139829084277153, -0.984444260597229, -0.02477121353149414, -0.12396217882633209, 0.03977262973785399, OutwardRot
2.1047488333424553, -0.13611915404741967, -0.06373662442361389, -0.06548990594052786, 2.580639362335205, -0.16509893536567688, 0.07955943793058395, -0.1354236602783203, 0.06369347870349884, -0.9887383580207825, 0.0060138702392578125, 0.012035876512527466, 0.017684280872344978, OutwardRot
2.1247938332962804, -0.14016842128236032, -0.008046412948948253, -0.05504075758008707, 3.060976982116699, -0.2526007890701294, 0.16464374959468842, -0.1397053599357605, 0.008046326227486137, -0.9901604056358337, 0.0209004431962967, 0.06690482795238495, 0.005770206451416017, OutwardRot
2.1448398333159275, -0.145084368135292, 0.05398324646630337, -0.043107338985625514, 3.168083906173706, -0.2188127189874649, 0.11799369007349014, -0.14436529576778412, -0.05395703017711637, -0.988052248954773, -0.005079254508018495, 0.010240588337183002, 0.005004823207855225, OutwardRot
2.1648848333279602, -0.15018698551658527, 0.11469899978523562, -0.03210223209848596, 2.969837188720703, -0.21717390418052673, 0.08983360975980759, -0.14863988757133484, -0.11444766819477081, -0.9822463393211365, -0.008922353386878967, -0.027748987078666687, 0.00130462646484375, OutwardRot
2.184929833339993, -0.15685282803539585, 0.1717138281151632, -0.020989786113884454, 2.8211255073547363, -0.28424209356307983, 0.11749258637428284, -0.15391312539577484, -0.17087122797966003, -0.9731976985931396, 0.006497964262962341, -0.01043371856212616, 0.007682561874389646, OutwardRot
2.204974833293818, -0.16499810211840854, 0.22532654614746264, -0.010034563637270826, 2.616529941558838, -0.3069817125797272, 0.0860690847039223, -0.16009840369224548, -0.22342465817928314, -0.9614831805229187, 0.0021546781063079825, -0.003153100609779359, 0.009655177593231205, OutwardRot
2.225020833313465, -0.17342225685781518, 0.27381650177836414, 1.4126229860015233e-05, 2.312446117401123, -0.2855440676212311, 0.05943625420331955, -0.16612592339515686, -0.27040770649909973, -0.9483047127723694, -0.00800736248493195, -0.01599973440170288, -0.00234830379486084, OutwardRot
2.245065833325498, -0.18197391843738214, 0.31709646764858984, 0.009347110940912054, 2.1281182765960693, -0.31061989068984985, 0.06262577325105664, -0.1719488948583603, -0.31180909276008606, -0.9344563484191895, 0.005322918295860289, -0.004002064466476439, -0.012015819549560547, OutwardRot
2.2651108333375305, -0.19105281293969678, 0.3573191013473339, 0.01839220157490064, 1.9533944129943848, -0.2778785228729248, 0.013640689663588995, -0.17789863049983978, -0.3497639298439026, -0.9197919964790344, 7.271766662597656e-05, 0.005495131015777588, -0.005256831645965576, OutwardRot
2.285155833349563, -0.19828067556536216, 0.3921262619608623, 0.0254509064285087, 1.5501819849014282, -0.19032354652881622, -0.033314451575279236, -0.18203262984752655, -0.3821541666984558, -0.9059924483299255, -0.00932784378528595, -0.014772713184356684, 0.004899919033050537, OutwardRot
2.3052018333110027, -0.2035368267776017, 0.4178863806424452, 0.030482031894515798, 1.0679044723510742, -0.14961937069892883, -0.027657747268676758, -0.18474048376083374, -0.40582960844039917, -0.8950828313827515, -0.0029121041297912606, -0.025261670351028442, 0.020204901695251465, OutwardRot
2.3252468333230354, -0.20744733912905317, 0.4355338669958789, 0.033770311691402176, 0.7517128586769104, -0.09476154297590256, -0.04631209000945091, -0.18673498928546906, -0.42189449071884155, -0.8872063159942627, 0.002317264676094055, -0.003840982913970946, 0.023864030838012695, OutwardRot
2.345291833335068, -0.2095550673667703, 0.44883235895073076, 0.035481503124409515, 0.5955030918121338, -0.04472580924630165, -0.07747133821249008, -0.1874207854270935, -0.43391382694244385, -0.8812447190284729, 0.0018128752708435059, 0.017516762018203735, 0.0244179368019104, OutwardRot
2.3653368333471008, -0.21037811156555078, 0.4599144639206254, 0.03618640272353816, 0.5068711638450623, -0.004585351794958113, -0.09523892402648926, -0.18713030219078064, -0.44387146830558777, -0.876333475112915, 0.0025905072689056396, 0.02848145365715027, 0.014196634292602544, OutwardRot
2.3853828333085403, -0.21006007127435522, 0.46963909886651434, 0.0360490655359487, 0.43791624903678894, 0.02615070343017578, -0.11821922659873962, -0.18594267964363098, -0.4525644779205322, -0.8721299767494202, 0.0044393986463546736, 0.03650307655334474, 0.005308687686920166, OutwardRot
2.405427833320573, -0.20875821202977032, 0.47778961065166814, 0.034981311189994375, 0.33279287815093994, 0.05356945097446444, -0.14168722927570343, -0.18403655290603638, -0.45981743931770325, -0.868733823299408, 0.0053561478853225725, 0.029916346073150635, 0.000997006893157959, OutwardRot
2.4254728333326057, -0.2067625868772308, 0.48381102556383404, 0.0331284101523215, 0.21782049536705017, 0.06309687346220019, -0.14523087441921234, -0.18173082172870636, -0.4651561677455902, -0.8663738369941711, 0.0023179799318313607, 0.01035270094871521, 0.002329707145690918, OutwardRot
2.4455178333446383, -0.20417281993206143, 0.4879775413581132, 0.030700204995635354, 0.1475544571876526, 0.08092903345823288, -0.14677254855632782, -0.17909198999404907, -0.46884045004844666, -0.8649362325668335, -0.0034794062376022326, 0.0046833455562591535, 0.006049513816833496, OutwardRot
2.4655619583209045, -0.20139664742210553, 0.48907208747061126, 0.02815979495106077, 0.052903711795806906, 0.08979623764753342, -0.12359896302223206, -0.1765873283147812, -0.469806969165802, -0.8649267554283142, -0.006472349166870117, -0.020259588956832886, 0.010022640228271484, OutwardRot
2.485606958332937, -0.19857427106730827, 0.4886962119853805, 0.02598655582243363, 0.01165773905813694, 0.09858505427837369, -0.09100175648927689, -0.1741803139448166, -0.469475120306015, -0.8655948042869568, -0.006041243672370911, -0.023429542779922485, 0.011590898036956787, OutwardRot
2.50565195834497, -0.19588692723934342, 0.4888256770957341, 0.024348644596679455, 0.009284064173698425, 0.11116380989551544, -0.07183141261339188, -0.17184169590473175, -0.4695894122123718, -0.8660001158714294, -0.00027742981910705577, -0.025726139545440663, 0.012286126613616947, OutwardRot
2.525696958298795, -0.19346579527143684, 0.48835234088631724, 0.02324871783645235, -0.0657325237989426, 0.11193808913230896, -0.0313255675137043, -0.1697872132062912, -0.4691714644432068, -0.8666316866874695, 0.003985211253166197, -0.03597074747085571, 0.006997287273406982, OutwardRot
2.545742958318442, -0.19171803157969197, 0.4873849733209049, 0.022946682886010032, -0.0755655765533447, 0.09213201701641086, 0.0024153506383299836, -0.1683586835861206, -0.4683169722557068, -0.8673722147941589, 0.010247126221656803, -0.03227812051773071, -0.0004103779792785646, OutwardRot
2.565787958330475, -0.19027974003352907, 0.487010645955242, 0.022929205803676227, -0.05145944654941557, 0.08482217788696292, 0.0012888340279459953, -0.16714411973953247, -0.46798619627952576, -0.8677855730056763, 0.011214554309844974, -0.007218301296234131, -0.00951850414276123, OutwardRot
2.5858329583425075, -0.18899496904508215, 0.48660384631767345, 0.022944667825877674, -0.07879093289375308, 0.06628323346376416, 0.014892109669744968, -0.16606482863426208, -0.4676266312599182, -0.8681864738464355, 0.004382729530334474, -0.0012759268283843998, -0.012581288814544678, OutwardRot
2.605878958303947, -0.18795205656716843, 0.48606709127055614, 0.02305016440923809, -0.05036941170692442, 0.05189257115125656, 0.016544332727789886, -0.165206179022789, -0.46715211868286133, -0.8686056733131409, 0.0024864524602890015, 0.017826557159423828, -0.011872231960296634, OutwardRot
2.6259239583159797, -0.18682459441828106, 0.48666201121518227, 0.022984030813550493, -0.005630038678646088, 0.04604021832346916, -0.017225537449121475, -0.1641751080751419, -0.467678040266037, -0.8685181736946106, 0.004568174481391905, 0.023494720458984375, -0.012097060680389404, OutwardRot
2.6459689583280124, -0.18526697599930814, 0.4863902517993047, 0.02224138351694035, -0.07034911215305326, 0.04246572405099869, -0.01729451492428779, -0.16284549236297607, -0.46743783354759216, -0.8688976764678955, -0.00034725666046142567, 0.00866708159446716, -0.007841825485229492, OutwardRot
2.666013958340045, -0.1841734845705185, 0.4845298457818926, 0.0215241352646273, -0.09634143114089963, 0.02037109434604644, -0.015094591304659849, -0.16205424070358276, -0.46579238772392273, -0.8699286580085754, 0.0005857348442077639, 0.010576933622360226, -0.0044609904289245605, OutwardRot
2.6860599583014846, -0.18346181626432073, 0.4829840412411417, 0.020754988475090306, -0.03333370387554169, 0.019620651379227645, -0.03019201196730137, -0.16156625747680664, -0.4644239544868469, -0.8707506656646729, 0.0016999393701553345, 0.012641727924346929, -0.0053632259368896484, OutwardRot
2.7061049583135173, -0.18265117946472742, 0.4823123327805062, 0.020015914115063746, 0.004118196666240692, 0.019787842407822602, -0.028223328292369843, -0.16091696918010712, -0.463828980922699, -0.8711879253387451, -0.00010901689529418941, 0.0038527846336364733, -0.006604433059692383, OutwardRot
2.72614995832555, -0.18194141124212748, 0.4819877798324729, 0.019368947969488532, -0.021082498133182526, 0.024842789396643646, -0.025294650346040736, -0.160325825214386, -0.4635414183139801, -0.8714499473571777, 0.00033743679523468007, -0.001103967428207398, 0.0022788047790527344, OutwardRot
2.7461949583375826, -0.18138315972355978, 0.4812384519929518, 0.018898751295753018, -0.03932701796293259, 0.015662491321563714, -0.008077161386609081, -0.1599019169807434, -0.4628773331642151, -0.8718807101249695, -0.0007883906364440915, -0.005186021327972412, 0.007485568523406982, OutwardRot
2.766240958299022, -0.18084760669139674, 0.4803848584867306, 0.018544761799957208, -0.022135112434625626, 0.022710565477609634, -0.01240837387740612, -0.1595059633255005, -0.46212050318717957, -0.8723545670509338, -0.0026797056198120117, -0.001838237047195434, 0.005029737949371338, OutwardRot
2.786285958311055, -0.1803280814108027, 0.4798461561091141, 0.018295261052955168, -0.01938779652118683, 0.0188674721866846, -0.0014919638633728027, -0.159097358584404, -0.46164271235466003, -0.8726820945739746, -0.0006926655769348147, -0.0003628730773925781, -0.0003037452697753906, OutwardRot
2.8063309583230875, -0.18003598671683876, 0.47973454759101636, 0.018266092416016726, 0.0010712724179029465, 0.016009539365768433, -0.003118051216006278, -0.15885166823863983, -0.4615437090396881, -0.8727791905403137, 0.0008164197206497192, 0.00475659966468811, -0.002281785011291504, OutwardRot
2.8263759583351202, -0.17984825014152198, 0.4801115136412725, 0.01826571472846384, 0.0067368838936090495, 0.01101413369178772, -0.003955995664000511, -0.15865668654441833, -0.46187809109687805, -0.8726378083229065, 0.002025216817855836, 0.007654458284378052, -0.006726205348968506, OutwardRot
2.8464219582965598, -0.1797719500354061, 0.48022875498557727, 0.018169403154985338, -0.006392901763319972, 0.003488401882350445, -0.005892683751881124, -0.15858040750026703, -0.4619820713996887, -0.8725965619087219, 0.0018573999404907227, 0.008109360933303833, -0.0059891939163208025, OutwardRot
2.8664669583085924, -0.17972167287812035, 0.48011240419058404, 0.018020779408105, -0.011447714641690254, 0.0013700285926461224, -0.008783774450421333, -0.15854614973068237, -0.46187886595726013, -0.8726574182510376, 0.001334860920906067, 0.010295003652572635, -0.001732230186462403, OutwardRot
2.886511958320625, -0.17953754132901564, 0.47964652745978886, 0.017660732630142156, -0.029370388016104698, 0.0023280251771211633, -0.0105186328291893, -0.15842387080192566, -0.46146562695503235, -0.8728982210159302, 0.002295941114425659, 0.006189137697219849, 9.548664093017578e-05, OutwardRot
2.9065579583402723, -0.179298214504498, 0.4791097429104307, 0.017327072942805326, -0.010203884914517403, 0.0043971482664346695, -0.013743872754275804, -0.15825910866260529, -0.4609893262386322, -0.8731797337532043, 0.00104781985282898, 0.009420782327651981, 0.003596663475036621, OutwardRot
2.9266029582940973, -0.17887590772793152, 0.47891042624606506, 0.016870724487874366, -0.002596430480480195, 0.01161612197756767, -0.01721256412565708, -0.1579066962003708, -0.46081244945526123, -0.873336911201477, -0.0027530789375305176, 0.006710886955261228, 0.0014649629592895503, OutwardRot
2.94664795830613, -0.17844500907257255, 0.47872635841545735, 0.016545109614489448, -0.006966413930058479, 0.018480952829122543, -0.015245553106069565, -0.15754541754722595, -0.4606490731239319, -0.8734883069992065, -0.0016190111637115485, 0.001115411520004272, 0.00781142711639404, OutwardRot
2.9666929583181627, -0.1778864062611495, 0.47838857863998124, 0.016145515733186233, -0.02655489556491375, 0.01609428599476815, -0.007778924889862535, -0.15708497166633606, -0.46034926176071167, -0.8737292885780334, 0.0004077404737472534, -0.00251084566116333, 0.006358683109283447, OutwardRot
2.98673895833781, -0.17759303081357827, 0.4778224366179006, 0.015989722733100068, -0.0194581039249897, 0.010390250012278557, -0.004877220839262009, -0.1568746566772461, -0.4598465859889984, -0.8740317225456238, -4.673004150390625e-05, -0.0031203031539916984, -0.0007699131965637209, OutwardRot
3.0067839583498426, -0.17736794681321014, 0.47757194738465536, 0.01598745792445801, -0.003117080777883529, 0.01579446904361248, 0.0020970655605196953, -0.15669824182987213, -0.45962414145469666, -0.8741803765296936, 0.002752333879470825, 0.0023334920406341553, -0.0050157904624938965, OutwardRot
3.0268289583036676, -0.1772845039817514, 0.4775624400107468, 0.016143879023149448, -0.006134308874607086, 0.008681565523147583, 0.004991123452782631, -0.15662606060504913, -0.45961570739746094, -0.8741977214813232, 0.001398429274559021, 0.0032253265380859375, -0.0024501681327819824, OutwardRot
3.0468739583157003, -0.17713543860385986, 0.4774744398211995, 0.01616337756727318, -0.014631523750722403, 0.008352837525308136, -0.004302739165723322, -0.1565028876066208, -0.459537535905838, -0.8742609024047852, 0.0006953924894332886, 0.006626158952713013, 0.0020074844360351554, OutwardRot
3.0669199583353475, -0.17690257916678176, 0.47731243582437105, 0.016049945908122885, -0.014438709244132047, 0.014020994305610652, -0.003112153150141239, -0.15631239116191864, -0.4593936502933502, -0.8743705749511719, 0.001542508602142334, 0.009091526269912723, -0.001071929931640625, OutwardRot
3.08696495834738, -0.17657502380868106, 0.47692632885807573, 0.015849422905383367, -0.02084055170416832, 0.008271515369415283, -0.006969590205699208, -0.15605713427066803, -0.45905065536499023, -0.8745962977409363, 0.00378967821598053, 0.007161617279052734, 0.003197371959686278, OutwardRot
3.107009958301205, -0.17618172985436847, 0.4762796067749923, 0.015550256947223442, -0.03799903020262718, 0.013069313950836658, -0.007477607112377885, -0.15576514601707458, -0.4584760069847107, -0.8749496936798096, 0.001346200704574585, 0.004206597805023195, 0.002986192703247071, OutwardRot
3.127054958313238, -0.1757846123762454, 0.47551815979711953, 0.015191461693949285, -0.03010542131960392, 0.010488444939255718, -0.01022252719849348, -0.15547868609428406, -0.45779919624328613, -0.8753549456596375, 0.0027534663677215576, 0.003743410110473633, 0.00037020444869995117, OutwardRot
3.147100958332885, -0.17534447582410237, 0.47495501129720424, 0.014787698158364077, -0.02219543233513832, 0.01753058470785618, -0.01633041165769101, -0.15513834357261658, -0.4572984278202057, -0.8756769895553589, 0.0011771619319915771, 0.004676997661590576, 0.0022944211959838867, OutwardRot
3.1671459583449177, -0.1748236458398985, 0.47460230183837915, 0.014357856292402108, -0.013178503140807157, 0.012999291531741624, -0.01402776595205068, -0.1547102928161621, -0.4569847285747528, -0.8759164810180664, -0.0004563331604003906, 0.003127336502075194, 0.002778053283691407, OutwardRot
3.1871909582987428, -0.1743830747370744, 0.47433810883335453, 0.013925111460149247, -0.019524814561009407, 0.011422775685787197, -0.020606497302651405, -0.15434530377388, -0.45674973726272583, -0.876103401184082, 0.0010555386543273926, 0.005135387182235718, -0.0017041563987731934, OutwardRot
0.0, -0.10043888315021562, 0.42028200405358335, 0.021439808351293475, -0.0032447800040245056, 0.012181644327938553, 0.0011882800608873367, -0.09154397994279859, -0.40801793336868286, -0.908372700214386, -0.03148762136697768, -0.0021992921829223633, 0.02011287212371827, OutwardRot
0.020045000012032688, -0.09990591438223045, 0.4198353416509045, 0.021530754802699517, -0.02775784581899643, 0.02696751430630685, -0.00030601955950260173, -0.0910780057311058, -0.40761008858680725, -0.9086026549339294, -0.009523183107376102, -0.0008218586444854736, 0.02041906118392945, OutwardRot
0.04009100003167987, -0.09930236419122673, 0.419493203650481, 0.021239551102803317, -0.012680491432547564, 0.024181829765439034, -0.018579717725515366, -0.09054341912269592, -0.40729764103889465, -0.9087961912155151, -0.0032065659761428833, 0.006876558065414429, 0.008252978324890133, OutwardRot
0.060136000043712556, -0.09866156400724581, 0.41947765146038896, 0.021061270016944102, 0.0012590270489454265, 0.025179944932460785, 0.0006485339254140852, -0.08996167033910754, -0.4072834551334381, -0.9088603258132935, -0.007694572210311892, -0.00021770596504211426, -0.001799464225769043, OutwardRot
0.08014999999431893, -0.0983187704284543, 0.4195237149692673, 0.02113648904478118, 0.011632971465587612, 0.005285998806357384, 0.005299211479723455, -0.08964826911687851, -0.40732550621032715, -0.9088724255561829, -0.0012635812163352962, 0.003120213747024536, -0.005266368389129639, OutwardRot
0.10019500000635162, -0.09835512163361658, 0.41970511946150496, 0.0211983164395916, -0.002519199624657631, -0.0020708511583507052, 0.002981996163725854, -0.08967404812574387, -0.40749117732048035, -0.9087955951690674, -0.0016955658793449402, 0.0014396011829376216, -0.004290342330932617, OutwardRot
0.12024000001838431, -0.09842743588394637, 0.41922532962758646, 0.02124487168851312, -0.04338913410902023, -0.004003850743174553, 0.007807034999132159, -0.0897589698433876, -0.40705299377441406, -0.908983588218689, -0.007653132081031799, -0.0014400184154510494, -0.00019609928131103516, OutwardRot
0.1402838333742693, -0.09861694860982902, 0.41828410050217135, 0.021285033516107405, -0.03757425397634506, -0.008249480277299881, 0.0032736491411924375, -0.08996891230344772, -0.4061930775642395, -0.909347414970398, -0.003933653235435486, 0.0029033422470092765, 0.003250062465667726, OutwardRot
0.16032983333570883, -0.09901083162314261, 0.4153791547555894, 0.02145725486692207, 0.016650766134262085, -0.010490321554243565, 0.012045646086335186, -0.09044334292411801, -0.4035368859767914, -0.9104822874069214, -0.0010788589715957646, 0.005725026130676271, 0.0017451047897338874, OutwardRot
0.18037483334774151, -0.09856403459848824, 0.4153462661418179, 0.021439990726101126, 0.006804527714848518, -0.0014636503765359517, 0.011864435859024528, -0.0900378376245499, -0.4035067856311798, -0.9105358123779297, -0.004383534193038942, 0.0016360878944396973, 0.004529953002929686, OutwardRot
0.2004198333597742, -0.10159338947353057, 0.4166053058571497, 0.023011788939013726, -0.02421184629201889, -0.010549653321504593, 0.02760242484509945, -0.09274416416883466, -0.4046584665775299, -0.9097527265548706, -0.002958953380584717, -0.007420361042022708, 0.0044487714767456055, OutwardRot
0.2204648333718069, -0.10283885782981814, 0.41700427254800587, 0.023820027946751515, 0.0070993378758430455, -0.01477683056145907, 0.018358251079916954, -0.09386057406663895, -0.4050232470035553, -0.9094758629798889, 0.0003852471709251404, 0.0031983554363250732, 0.001623690128326416, OutwardRot
0.24050983332563192, -0.10275029770678372, 0.416163019973007, 0.02413100545409827, 0.02510576881468296, 0.0031363891903311014, 0.022616647183895104, -0.09381494671106341, -0.4042539596557617, -0.9098227620124817, -0.005260363221168516, 0.006579458713531494, 0.0014212727546691895, OutwardRot
0.2605558333452791, -0.1029381756440143, 0.4157385472155242, 0.024697880149733432, -0.006131779402494429, -0.004087207373231648, 0.02684091404080392, -0.09400350600481036, -0.40386566519737244, -0.9099757075309753, -0.0014859884977340698, -0.001972287893295289, 0.005221068859100342, OutwardRot
0.2806008333573118, -0.1035470411392033, 0.41686168336924456, 0.02516528393822857, -0.018281785771250725, -0.004026467446237801, 0.006930740550160408, -0.09451059997081754, -0.4048928916454315, -0.909466564655304, 0.0006385445594787598, 0.007843971252441406, 0.003979504108428953, OutwardRot
0.3006458333693445, -0.10339281266169796, 0.4165714756132635, 0.02508113085154685, -0.030972812324762334, 0.001595883630216121, 0.0034314999356865896, -0.09438244998455045, -0.4046275019645691, -0.9095979928970337, -0.00592881441116333, 0.005121946334838867, 0.005118012428283691, OutwardRot
0.3206908333231695, -0.1035642251271153, 0.41503401210204294, 0.02521840782554576, -0.04113730043172835, 0.017123404890298843, 0.0025797821581363687, -0.094602569937706, -0.4032210409641266, -0.9101994633674622, -0.00842476636171341, 0.006538361310958862, 0.005612671375274658, OutwardRot
0.3407368333428167, -0.10359040419090819, 0.4148498621062203, 0.025345794373834586, -0.001714793965220452, 0.014571298845112324, 0.0023118676617741585, -0.09463407099246982, -0.40305253863334656, -0.9102708697319031, 0.00028899312019348145, 0.01026085019111633, 0.0038987994194030775, OutwardRot
0.36078183335484937, -0.10325521982498166, 0.4152444014008998, 0.02536696576617562, 0.03887231647968292, 0.018953949213027954, -0.0057000997476279736, -0.09431256353855133, -0.4034135639667511, -0.9101442694664001, -0.0009785592555999756, 0.009843647480010986, 0.0052675604820251465, OutwardRot
0.38082683336688206, -0.10319961409375594, 0.41539999063421307, 0.025456263726332883, -0.004292866215109825, 0.024454955011606216, -0.011423118412494663, -0.0942554846405983, -0.4035559296607971, -0.9100871086120605, -0.004636712372303009, -0.0018242895603179925, 0.0066599845886230495, OutwardRot
0.4008718333207071, -0.1034160679787011, 0.4145417995188668, 0.025665312498645836, -0.04442230984568596, 0.027284163981676112, 0.0037465123459696757, -0.09448818862438205, -0.4027705788612366, -0.9104107618331909, -0.005105912685394287, -0.003921866416931151, 0.004633784294128418, OutwardRot
0.42091783334035426, -0.10299699184867687, 0.41332498659835565, 0.02575417892195671, -0.0263077523559332, 0.035432104021310806, 0.004754785448312758, -0.09415697306394577, -0.40165653824806213, -0.9109371304512024, -0.003453493118286134, 0.004912823438644411, 0.004244625568389894, OutwardRot
0.44096283335238695, -0.10254899243994779, 0.4127269854290753, 0.026083495669920954, -0.003825481981039046, 0.02974829077720641, 0.01953723281621933, -0.09377343207597733, -0.40110883116722107, -0.911217987537384, 0.0008626729249954224, -0.002455592155456543, 0.0008023381233215335, OutwardRot
0.46100783336441964, -0.10248337830695932, 0.41277522050985205, 0.02656754449819009, -0.008923437446355816, 0.026055002585053454, 0.014878677204251284, -0.09371166676282885, -0.40115299820899963, -0.9112048745155334, 0.0029829218983650208, -0.002686053514480591, 0.0019031167030334473, OutwardRot
0.4810528333764523, -0.10256721239874185, 0.4129740498050778, 0.02710343128359855, -0.02421331033110618, 0.027007443830370913, 0.025092661380767822, -0.09377988427877426, -0.40133512020111084, -0.911117672920227, -0.001877456903457641, -0.0041518807411193865, 0.0024567842483520508, OutwardRot
0.5010978333302774, -0.10252391711883443, 0.41236813238352166, 0.02768808928709828, -0.02678872086107731, 0.02841018885374068, 0.01910633221268654, -0.09376531094312668, -0.4007800817489624, -0.9113634824752808, -0.0008849427103996277, 0.00423470139503479, 0.0025805234909057617, OutwardRot
0.5211438333499245, -0.10211477074446954, 0.41178439718042364, 0.027953988597623085, -0.04099295660853386, 0.026116253808140755, 0.009163801558315754, -0.0934162512421608, -0.40024518966674805, -0.9116343259811401, 0.002153448760509491, 0.0038066506385803236, 0.007917284965515133, OutwardRot
0.5411888333619572, -0.10142950493585806, 0.41114289616308347, 0.027914969532307578, -0.04934742301702498, 0.028564784675836553, 0.006444333121180532, -0.09281750023365018, -0.3996572494506836, -0.9119533896446228, 2.8818845748901367e-05, 0.0033560097217559814, 0.008770406246185303, OutwardRot
0.5612338333739899, -0.1009776688213049, 0.4104329874861672, 0.027981112201320123, -0.06360439211130145, 0.03844427317380905, 0.003595512360334395, -0.09243401885032651, -0.3990063965320587, -0.9122772812843323, -0.001605898141860962, -0.0013079047203063965, 0.005294859409332275, OutwardRot
0.5812788333278149, -0.1003072324763353, 0.40866125781823187, 0.027957117495742673, -0.12405841797590256, 0.04656558483839035, 0.004573957994580269, -0.09189301729202268, -0.3973811864852905, -0.9130409955978394, -0.003413371741771698, -0.008380472660064697, 0.003937602043151854, OutwardRot
0.6013248333474621, -0.09916155784507558, 0.4052681467144123, 0.027574556749623308, -0.2543429136276245, 0.06320995837450025, -0.01108048390597105, -0.09097987413406369, -0.39426520466804504, -0.9144821166992188, -0.0029379650950431824, -0.01518908143043518, 0.00272369384765625, OutwardRot
0.6213698333594948, -0.09700663177940909, 0.3975698618126624, 0.026147088865196223, -0.6070969700813293, 0.10961660742759705, -0.05002894625067711, -0.08930034935474393, -0.387178897857666, -0.9176698327064514, -0.007257260382175448, -0.03866335749626161, -0.009454190731048584, OutwardRot
0.6414148333715275, -0.093837384270713, 0.38204331351285303, 0.023072427734059292, -1.0242979526519775, 0.10927983373403549, -0.08662120252847672, -0.08694443106651306, -0.3728172481060028, -0.9238224625587463, -0.0060121044516563416, -0.057099103927612284, 0.0021458268165588388, OutwardRot
0.6614598333253525, -0.09027966450806886, 0.3593621316789479, 0.01877661400532675, -1.2046409845352173, 0.08306627720594406, -0.09950656443834302, -0.08439796417951584, -0.35167717933654785, -0.9323090314865112, -0.003935158252716066, -0.031013190746307363, 0.001446604728698731, OutwardRot
0.6815058333449997, -0.08808346054118435, 0.3384041326193413, 0.015174115855673348, -0.8188984394073486, -0.0017297771992161877, -0.03412070870399475, -0.08298046141862869, -0.33198216557502747, -0.9396287202835083, 0.014483772218227386, 0.03585490584373473, -0.0170668363571167, OutwardRot
0.7015508333570324, -0.08868917604983713, 0.3294253999514633, 0.01428663714652066, -0.09677046537399292, -0.06530743837356567, 0.016280528157949448, -0.0838102400302887, -0.3234993815422058, -0.9425094127655029, 0.025689519941806783, 0.0812050998210907, -0.00396275520324707, OutwardRot
0.7215958333690651, -0.08990739088123428, 0.3308108713991982, 0.01494223234599735, 0.12138263136148453, -0.0331617146730423, 0.03848999738693237, -0.08491803705692291, -0.3248100280761719, -0.9419593214988708, 0.0068388208746910095, 0.01783373951911927, 0.007556855678558347, OutwardRot
0.7416408333228901, -0.09055672755259858, 0.3296315985487787, 0.015805925777304327, -0.29744431376457214, 0.0007821163162589073, 0.04051704332232475, -0.08556424826383591, -0.32369449734687805, -0.9422847628593445, -0.0002664327621459961, -0.07188957929611206, 0.01938742399215699, OutwardRot
0.7616858333349228, -0.0896170567098159, 0.31746925771200973, 0.014939154193869986, -0.9229863286018372, 0.06921636313199997, -0.0176272951066494, -0.08502484112977982, -0.3121632933616638, -0.9462160468101501, 0.0021848827600479135, -0.0899973213672638, 0.01976341009140014, OutwardRot
0.78173183335457, -0.08651184104033763, 0.2931558904192092, 0.01158706173074556, -1.4973185062408447, 0.12633512914180756, -0.0736037865281105, -0.08271768689155579, -0.28897491097450256, -0.9537563920021057, -0.00041218847036361694, -0.07824307680130005, 0.010702192783355713, OutwardRot
0.8017768333666027, -0.08317515438823823, 0.2601805971783761, 0.007248517226959278, -1.7622952461242676, 0.08506718277931213, -0.057351578027009985, -0.08028312772512433, -0.25725507736206055, -0.9630028009414673, 0.006110161542892456, -0.052681416273117045, 0.007833123207092282, OutwardRot
0.8218218333204277, -0.08092696094515897, 0.2253958863956028, 0.0034184440039465532, -1.7029592990875244, 0.04992232844233514, -0.02698800154030323, -0.07879389822483063, -0.22349224984645844, -0.9715157151222229, 0.007092870771884916, -0.014056533575057983, -0.0003623366355895996, OutwardRot
0.8418668333324604, -0.07890024738697783, 0.1908951768573268, -0.00012413993931803053, -1.8449597358703613, 0.09575212001800537, -0.0561654791235924, -0.07738665491342545, -0.18973788619041443, -0.9787802696228027, -0.005239665508270264, -0.02272547781467437, -0.00589984655380249, OutwardRot
0.8619128333521076, -0.07563100395354035, 0.1477209184303014, -0.005292985329208656, -2.550527572631836, 0.13403628766536713, -0.11855291575193405, -0.07473601400852203, -0.14718425273895264, -0.9862815737724304, -0.0060287415981292725, -0.09610188007354736, 0.00048750638961791976, OutwardRot
0.8819578333641402, -0.07227604956472414, 0.08835321702905145, -0.012871617080602488, -3.370806932449341, 0.0999295637011528, -0.1966276317834854, -0.07193146646022797, -0.08823830634355545, -0.9934988021850586, 0.0006118863821029661, -0.13644737005233765, 0.017195701599121094, OutwardRot
0.9020028333761729, -0.07033104955751603, 0.01815782454857838, -0.022037462678358013, -3.5265896320343018, 0.03220990672707556, -0.2020445019006729, -0.07026150077581406, -0.018156826496124275, -0.9973633289337158, 0.011240512132644653, -0.06822319328784943, 0.01628422737121582, OutwardRot
0.922047833329998, -0.0707391484126091, -0.04644026057707122, -0.030001250090084954, -2.8599400520324707, -0.06084405630826952, -0.127322256565094, -0.07060395926237106, 0.046423569321632385, -0.9964235424995422, 0.017640717327594757, 0.043526966124773026, 0.003793537616729735, OutwardRot
0.9420938333496451, -0.07303541211344722, -0.09521862888096269, -0.03544327818186514, -2.089733362197876, -0.1153097152709961, -0.07560967653989792, -0.07263994961977005, 0.09507481008768082, -0.9928163290023804, 0.011543773114681247, 0.07048302143812177, -0.0013242959976196285, OutwardRot
0.9621388333616778, -0.07584033745096863, -0.1349818623804442, -0.040053319270080434, -2.0534090995788574, -0.10646611452102661, -0.09518972784280777, -0.07507845759391785, 0.1345723420381546, -0.988055408000946, 0.0033011212944984436, -0.013158202171325684, 0.01434630155563354, OutwardRot
0.9821838333737105, -0.07853019924402377, -0.18183375120734546, -0.0460118340444157, -2.730661630630493, -0.055107589811086655, -0.1273186355829239, -0.07715617120265958, 0.18083339929580688, -0.9804826378822327, -0.0023115947842597953, -0.11543427407741547, 0.029478609561920166, OutwardRot
1.0022288333275355, -0.08088733640783644, -0.24331867230794832, -0.053665757536321815, -3.3584392070770264, -0.02568219043314457, -0.1292092204093933, -0.07841911911964417, 0.2409248650074005, -0.9673704504966736, -0.0031390935182571424, -0.13864527642726898, 0.04107046127319336, OutwardRot
1.0222748333471827, -0.08356527901061922, -0.31093204887498505, -0.062119705710649654, -3.295295476913452, -0.02302281558513642, -0.11572235822677612, -0.07946566492319107, 0.30594611167907715, -0.9487265944480896, 0.0013406723737716675, -0.035880863666534424, 0.0289267897605896, OutwardRot
1.0423198333592154, -0.08683705337336253, -0.3709510606272502, -0.06949121942622898, -2.740018606185913, -0.06957157701253891, -0.07434726506471634, -0.08082898706197739, 0.36250197887420654, -0.9284713268280029, 0.004275649785995482, 0.03793433308601378, 0.01791834831237793, OutwardRot
1.062364833371248, -0.09133356019577618, -0.4221123632988344, -0.07611787213152896, -2.509821891784668, -0.12444258481264114, -0.08399353921413422, -0.08320102095603943, 0.4096883237361908, -0.9084233641624451, 0.0015207305550575256, -0.007695615291595459, 0.009619653224945065, OutwardRot
1.0824098333250731, -0.09623272000477125, -0.47276696547581426, -0.08296258557405058, -2.648914337158203, -0.0617145299911499, -0.053380005061626414, -0.08554494380950928, 0.45535150170326233, -0.8861924409866333, -0.0045887082815170305, -0.07447695732116696, 0.0100785493850708, OutwardRot
1.1024558333447203, -0.10046087266764576, -0.52844726062642, -0.09052893552528515, -2.935941219329834, -0.003880222560837865, -0.05830095335841179, -0.08661124855279922, 0.5041930079460144, -0.8592367768287659, -0.007047191262245178, -0.08707886934280396, 0.005675375461578369, OutwardRot
1.122500833356753, -0.10493009351807663, -0.5879202217449853, -0.09904490591779111, -2.992465019226074, -0.0046944268979132175, -0.04228051751852034, -0.08715177327394485, 0.5546316504478455, -0.8275193572044373, 0.0002072080969810485, -0.05064922571182251, 0.010197579860687256, OutwardRot
1.1425470833200961, -0.11100540922033827, -0.6458938438106415, -0.10778877407739285, -2.8086698055267334, -0.08349466323852539, -0.04697723314166069, -0.08846276998519895, 0.6019124388694763, -0.793647050857544, 0.013374276459217077, -0.01544100046157837, 0.0012733936309814453, OutwardRot
1.1625920833321288, -0.11852477816055883, -0.6997666914010297, -0.1168312325988252, -2.631786823272705, -0.09587936848402023, -0.028231849893927574, -0.09045840799808505, 0.6440392136573792, -0.7596253156661987, 0.0007520094513893127, -0.015590906143188471, -0.006899952888488772, OutwardRot
1.182638083351776, -0.12607720655247986, -0.750125581428182, -0.12542680874115605, -2.4430878162384033, -0.09315820783376694, -0.00431046262383461, -0.09199431538581848, 0.6817306280136108, -0.7257962822914124, -0.0030221492052078256, -0.020353853702545173, -0.008365154266357422, OutwardRot
1.2026830833638087, -0.1346437375149809, -0.7973369987699491, -0.13462438525321888, -2.338590383529663, -0.11398829519748688, -0.02853061817586422, -0.09378010779619217, 0.7154982089996338, -0.6922914981842041, -4.616379737854004e-05, -0.016264379024505615, -0.008025944232940674, OutwardRot
1.2227280833758414, -0.14480850360535558, -0.8447893706996354, -0.1453878502492841, -2.4938809871673584, -0.11730701476335526, -0.0444551445543766, -0.09580110013484958, 0.7478312849998474, -0.656940221786499, 0.0017001628875732422, -0.04701048135757446, -0.001537621021270752, OutwardRot
1.2427730833296664, -0.15775388353941724, -0.8971411211168564, -0.15975596454949786, -2.7943243980407715, -0.07940202951431272, -0.06261276453733441, -0.09800656884908676, 0.7815465927124023, -0.6161002516746521, 0.001815177500247956, -0.07491219043731692, -0.0058633089065551775, OutwardRot
1.2628190833493136, -0.17231369286831485, -0.9522005738720799, -0.17619264874396012, -2.688706159591675, -0.07852450013160706, -0.014397678896784777, -0.09942950308322909, 0.8146935701370239, -0.5713037848472595, 0.007388509809970858, -0.03136855363845825, -0.010895311832427982, OutwardRot
1.2828640833613463, -0.18884608857305374, -1.0010855833573409, -0.19337145425572097, -2.271705150604248, -0.15401223301887512, -0.06104538217186928, -0.10125704109668732, 0.8420570492744446, -0.5297989845275879, 0.005492888391017914, 0.04354768991470337, -0.01960909366607666, OutwardRot
1.302909083373379, -0.20873409357700815, -1.0430628733462273, -0.2126060961343889, -2.1268184185028076, -0.18079054355621338, -0.08826977014541626, -0.10435188561677933, 0.8639506697654724, -0.49264559149742126, -0.0021544545888900757, 0.00404536724090576, -0.0244290828704834, OutwardRot
1.322954083327204, -0.2347207496560727, -1.0881377993433843, -0.23842958940094766, -2.585956573486328, -0.14504431188106537, -0.12894320487976074, -0.10794462263584137, 0.8857641220092773, -0.4514085054397583, -0.0021017417311668387, -0.08156508207321167, -0.014579743146896362, OutwardRot
1.3430000833468512, -0.26946550410709524, -1.1419160776874908, -0.27440904115801024, -2.9220948219299316, -0.10854435712099075, -0.05876624956727028, -0.11070667952299118, 0.9094319939613342, -0.4008456766605377, 0.00807607918977737, -0.08571696281433108, -0.005144983530044557, OutwardRot
1.3630450833588839, -0.31177238574756816, -1.1945857008560463, -0.31747653227326794, -2.4730310440063477, -0.1742708683013916, -0.05139431357383728, -0.11269797384738922, 0.9300635457038879, -0.34968653321266174, 0.013592161238193507, 0.019948482513427734, -0.0210716426372528, OutwardRot
1.3830900833709165, -0.35582288950602164, -1.2333120795080224, -0.35973596172687483, -1.6744458675384521, -0.2561180591583252, -0.07352076470851895, -0.11534753441810608, 0.9435906410217285, -0.3103732168674469, -0.0036862641572952257, 0.0797551870346069, -0.02852463722229004, OutwardRot
1.4031350833247416, -0.39669451424883656, -1.2596505016388544, -0.39747993477722987, -1.3113646507263184, -0.2442580908536911, -0.08520169556140897, -0.1182873547077179, 0.9519833922386169, -0.2823745906352997, -0.008421599864959717, 0.033184826374053955, -0.017292886972427368, OutwardRot
1.4231810833443888, -0.439782612412863, -1.2834253775061557, -0.43785788252501057, -1.3762322664260864, -0.20005708932876587, -0.023973379284143448, -0.12066898494958878, 0.9589923620223999, -0.256461501121521, 7.878988981246948e-05, -0.03348594903945923, 0.006293535232543948, OutwardRot
1.4432260833564214, -0.4893419929805286, -1.3085258110583875, -0.4855076966964633, -1.395333170890808, -0.1695655882358551, -0.006353069096803668, -0.12187018990516663, 0.9658038020133972, -0.22884562611579895, 0.0015546604990959167, -0.027281641960144043, 0.006143525242805481, OutwardRot
1.4632710833684541, -0.5427131134990827, -1.3309874189101483, -0.5373417012073952, -1.1338385343551636, -0.14974530041217804, -0.006000618450343607, -0.12266779690980911, 0.9713833928108215, -0.20338748395442963, -0.005460210144519808, 0.02127683162689209, -0.00021067261695861816, OutwardRot
1.4833160833222792, -0.5863377047248772, -1.3465160883700267, -0.5792161065221916, -0.6964021921157837, -0.1405840963125229, 0.011938244104385376, -0.12305910140275955, 0.9749544262886047, -0.18525618314743042, -0.005679279565811159, 0.04414933919906616, 0.0018606930971145636, OutwardRot
1.5033620833419263, -0.6161809162645935, -1.3553076927518914, -0.6069059577855088, -0.39531734585762024, -0.13190139830112457, 0.005998177453875542, -0.12357401102781296, 0.9768720269203186, -0.17450034618377686, -0.006858110427856448, 0.02942967414855957, -0.005858719348907471, OutwardRot
1.523407083353959, -0.6359993990602318, -1.3608958745894875, -0.6246969590062835, -0.27817702293395996, -0.10586149245500565, 0.01670613884925843, -0.12376294285058975, 0.9780516624450684, -0.16762234270572662, -0.00312911719083786, 0.010931253433227543, 0.013203278183937073, OutwardRot
1.5434520833659917, -0.6460355252105563, -1.3642801930318507, -0.6329995876556449, -0.058188721537590006, -0.09118343144655228, 0.04851044714450836, -0.12344585359096527, 0.9787512421607971, -0.16372834146022797, -0.0012642145156860356, 0.018288373947143555, 0.011582791805267334, OutwardRot
1.5634970833198167, -0.6362696189018139, -1.362835854394204, -0.6210931169644628, 0.33553966879844666, -0.09856100380420682, 0.05752570182085035, -0.1226806640625, 0.978454053401947, -0.166062593460083, -0.005645729601383211, 0.04492217302322389, 0.008912160992622379, OutwardRot
1.583543083339464, -0.6029728885004195, -1.3544358045558202, -0.5851130891231879, 0.7627564668655396, -0.09054359048604965, 0.07492276281118393, -0.12174155563116074, 0.9766852259635925, -0.17681884765625, -0.010399557650089264, 0.040892839431762695, 0.011688098311424252, OutwardRot
1.6035880833514966, -0.5580618291944022, -1.340407243472779, -0.5372839132066142, 0.9477038979530334, -0.07829660922288895, 0.04838467016816139, -0.12092437595129013, 0.973577618598938, -0.1937105804681778, -0.007752977311611178, 0.028253257274627686, 0.013977169990539556, OutwardRot
1.6236330833635293, -0.5178350785068382, -1.3252774939995098, -0.49454509994431833, 0.812167763710022, -0.04705013707280159, 0.03014094941318035, -0.12031437456607819, 0.9700113534927368, -0.21119242906570435, -0.00560113787651062, 0.0016528964042663574, 0.021617114543914788, OutwardRot
1.643678083375562, -0.4956131767384706, -1.3159598874674985, -0.4707445066838259, 0.5398715138435364, -0.007615000940859315, 0.0413159541785717, -0.11988517642021179, 0.9677045345306396, -0.2217549830675125, -0.0014526993036270146, -0.032249391078948975, 0.012877285480499268, OutwardRot
1.6637240833370015, -0.4810338517944909, -1.3099742260819622, -0.45534775346645906, 0.5476095676422119, 0.010990831069648266, 0.052456945180892924, -0.11931764334440231, 0.966178297996521, -0.22861044108867645, -0.0004943534731864931, -0.015159130096435547, 0.0034363269805908216, OutwardRot
1.6837690833490342, -0.45738317802726175, -1.2995327695062275, -0.43062876759321844, 1.0119693279266357, 0.0013911437708884482, 0.07346004247665402, -0.11832642555236816, 0.9634330868721008, -0.24040615558624268, -0.004522055387496948, 0.04500472545623779, 0.0020332038402557364, OutwardRot
1.7038140833610669, -0.41583483170539115, -1.2768727355426084, -0.3869092517484413, 1.6480598449707031, -0.02720975875854491, 0.07689057290554047, -0.1170291006565094, 0.9571145176887512, -0.265019953250885, -0.002401418983936309, 0.07689708471298215, 0.007115811109542847, OutwardRot
1.7238590833730996, -0.37185384502897506, -1.2443757702734715, -0.3400220904641176, 1.7397595643997192, -0.030036134645342837, -0.010739903897047043, -0.11650752276182175, 0.9471961855888367, -0.2987392246723175, 0.0003118664026260376, 0.048271775245666504, 0.013201355934143066, OutwardRot
1.743905083334539, -0.34432736206486886, -1.217228788843908, -0.310872789723081, 1.0476305484771729, 0.04546396806836128, -0.0018937960267066962, -0.11688017100095749, 0.9381434321403503, -0.3259226381778717, 0.0002572685480117798, -0.08365148305892942, 0.011042207479476929, OutwardRot
1.7639500833465718, -0.33101378432539763, -1.2055975513770605, -0.29845967720497696, 0.293222039937973, 0.11913757771253586, 0.020611703395843513, -0.11606942117214203, 0.9340527653694153, -0.33774691820144653, 0.0002552345395088197, -0.11918789148330688, 0.01035425066947937, OutwardRot
1.7839950833586045, -0.32166468738331944, -1.1999913045143584, -0.29102810117829225, 0.49213528633117676, 0.10266617685556412, 0.05371464043855667, -0.11456046253442764, 0.9320359230041504, -0.3437797725200653, -0.0026880428194999703, 0.006272554397583008, -0.010224193334579464, OutwardRot
1.8040400833706371, -0.3014229817298137, -1.1816674913549614, -0.2706342905179014, 1.5207921266555786, 0.017193086445331573, 0.10359778255224228, -0.11263078451156616, 0.9252399206161499, -0.36227792501449585, 0.002279236912727356, 0.10703229904174805, -0.013134181499481196, OutwardRot
1.8240860833320767, -0.27083033882611984, -1.143258921525065, -0.23663690438912763, 2.4445016384124756, -0.06875801831483841, 0.09758052229881284, -0.11092684417963028, 0.909989595413208, -0.39951711893081665, 0.0057022422552108765, 0.10499435663223267, -0.001178741455078125, OutwardRot
1.8441310833441094, -0.2431492422105451, -1.0944447656197203, -0.2042363333077599, 2.465038776397705, -0.0618940107524395, 0.03958391398191452, -0.11039827764034271, 0.8886737823486328, -0.4450518488883972, 0.004380211234092711, 0.007413804531097412, 0.022490024566650398, OutwardRot
1.8842210833681747, -0.20924245154072563, -1.024598625130557, -0.16658960446330714, 1.2076942920684814, 0.10008661448955536, 0.038618627935647964, -0.10789789259433746, 0.8545057773590088, -0.5081120133399963, -0.00822147727012634, -0.06846463680267334, 0.027505815029144287, OutwardRot
1.9042670833296143, -0.19766905012465852, -1.0011282679804168, -0.15547054156252205, 1.3170256614685059, 0.10482481867074966, 0.0760965347290039, -0.10592036694288254, 0.8420800566673279, -0.528849720954895, -0.0026153922080993644, 0.024725794792175286, 0.007792472839355469, OutwardRot
1.864176083356142, -0.22322528691630156, -1.0528374893867953, -0.18116030497798424, 1.7831571102142334, 0.030453821644186974, 0.06871961802244186, -0.10960493981838226, 0.8688315749168396, -0.4828231632709503, 0.000596165657043457, -0.08916866779327393, 0.03729695081710814, OutwardRot
1.9443570833536796, -0.16974707205266004, -0.9246060706808676, -0.12327787914851918, 2.5860297679901123, -0.030454404652118693, 0.10086796432733536, -0.10172287374734879, 0.7983835935592651, -0.5934946537017822, 0.008415386080741882, 0.06805604696273804, 0.011325955390930176, OutwardRot
1.9644020833657123, -0.15755088352579968, -0.8712230456486194, -0.10677656514182995, 2.7141313552856445, -0.031025519594550133, 0.044773273169994354, -0.10102646797895432, 0.7651169896125793, -0.6359163522720337, 0.0005473494529724121, 0.0072370171546936035, 0.01671457290649414, OutwardRot
1.9844480833271518, -0.14815545897586413, -0.8217771080037207, -0.09397875830726331, 2.2469780445098877, 0.01482283417135477, 0.04276661574840546, -0.10051346570253372, 0.7323570847511292, -0.6734612584114075, -0.0023917928338050834, -0.0568658709526062, 0.03303462266921997, OutwardRot
2.0044930833391845, -0.1405188064234905, -0.7824674506373173, -0.08467395064682733, 1.7731305360794067, 0.07326577603816986, 0.027944527566432942, -0.09932494163513184, 0.7050313949584961, -0.7021859884262085, -0.005975954234600067, -0.06457442045211792, 0.03343898057937622, OutwardRot
2.024538083351217, -0.13343736253442412, -0.7478643661799683, -0.07693253252570097, 1.8231912851333618, 0.08382752537727356, 0.06418713927268982, -0.09753859043121338, 0.6800745725631714, -0.7266255617141724, -0.005549773573875427, 0.0061740875244140625, 0.023943006992340088, OutwardRot
2.04458308336325, -0.12596757314370968, -0.7067232485240754, -0.06763702082171881, 2.4083595275878906, 0.04043028876185417, 0.0832189321517944, -0.09554439038038254, 0.649345338344574, -0.7544679045677185, 0.0031982138752937317, 0.06845849752426147, 0.012967050075531, OutwardRot
2.0646290833246894, -0.11879578993889105, -0.6525389820963251, -0.056676945987117665, 3.008439064025879, -0.01719777658581733, 0.10103954374790192, -0.09416670352220535, 0.6072056889533997, -0.7889447212219238, 0.00856490433216095, 0.08442932367324826, 0.03158998489379884, OutwardRot
2.084674083336722, -0.11326516878102133, -0.5902998058635159, -0.04577549819307272, 3.162670135498047, -0.04938430711627005, 0.04857051745057106, -0.09389667212963101, 0.556610107421875, -0.8254505395889282, 0.004617512226104736, 0.02806079387664795, 0.030086100101470947, OutwardRot
2.104719083348755, -0.10937608915163764, -0.5311626148424254, -0.037354928880533544, 2.7163772583007812, -0.0022319164127111435, 0.01726045832037925, -0.09411819279193881, 0.5065361261367798, -0.8570664525032043, -0.005842126905918123, -0.03200310468673706, 0.03853923082351686, OutwardRot
2.1247640833607875, -0.1055501542966773, -0.4812476932372195, -0.03063012513996326, 2.364832878112793, 0.04479442909359932, 0.03794747591018677, -0.09338793158531189, 0.4628854990005493, -0.8814849257469177, -0.007716797292232513, -0.03945422172546385, 0.03321826457977295, OutwardRot
2.1448104583541863, -0.10204260876839083, -0.43399868497242583, -0.024068731957186663, 2.453700542449951, 0.006211902014911173, 0.05149352550506592, -0.09242180734872818, 0.4205021262168884, -0.902571976184845, -0.002533622086048127, 0.02436774969100952, 0.03323298692703247, OutwardRot
2.164855458366219, -0.09975686267742082, -0.3826642510325418, -0.017240523641868524, 2.681588649749756, -0.039573464542627335, 0.056249361485242844, -0.09238834679126742, 0.37339335680007935, -0.9230610728263855, 0.002117358148097991, 0.04484999179840088, 0.02206009626388549, OutwardRot
2.184900458320044, -0.0982947121184716, -0.33037995838060236, -0.010560007021990402, 2.4925005435943604, -0.04059389606118202, 0.04535806179046631, -0.09282919764518738, 0.32440245151519775, -0.9413531422615051, 0.003031231462955475, -0.012039870023727417, 0.026756584644317637, OutwardRot
2.2049454583320767, -0.09729504182287943, -0.28461418892706697, -0.005486175167525848, 2.137472152709961, -0.013933446258306503, -0.012773874215781683, -0.09323360770940778, 0.2807871699333191, -0.9552308917045593, -0.0048040971159935, -0.06960558891296384, 0.02006548643112182, OutwardRot
2.224991458351724, -0.09666484207939934, -0.2427091771477429, -0.0013704197915054904, 2.127749443054199, -0.04501610994338989, 0.013297293335199356, -0.0936855748295784, 0.24033327400684357, -0.9661588668823242, -0.0018344372510910028, 0.0037004798650741577, 0.01843547821044922, OutwardRot
2.2450364583637565, -0.096811359574703, -0.19781140994859647, 0.0038445040243424216, 2.3533666133880615, -0.08693704754114151, 0.05100461095571516, -0.0947752371430397, 0.19652388989925385, -0.9759078025817871, 0.0047941729426383955, 0.04375621676445006, 0.00808858871459961, OutwardRot
2.2650814583757892, -0.09741190702314613, -0.15225071049998812, 0.009423857923283669, 2.1286656856536865, -0.05967205762863157, 0.04568209499120711, -0.09613286703824997, 0.1516631841659546, -0.9837462902069092, 0.0010401010513305664, -0.02167360484600067, 0.01612544059753418, OutwardRot
1.924312083341647, -0.18403869608301793, -0.969597508361115, -0.140925089609385, 1.9717134237289429, 0.03522690758109093, 0.10913445800542831, -0.10351141542196274, 0.8246580958366394, -0.5560793280601501, 0.009151086211204525, 0.06297600269317627, 0.0016207098960876465, OutwardRot
2.2851274583372287, -0.09757430144513247, -0.11592208285225354, 0.01342769241730941, 1.5034195184707642, -0.017204226925969124, 0.0010626940056681633, -0.09676571935415268, 0.11566263437271118, -0.9885638952255249, -0.0036065801978111267, -0.09265241026878354, 0.011543631553649902, OutwardRot
2.3051724583492614, -0.0978229811625673, -0.08969196001575724, 0.016084207744852842, 1.2412009239196777, -0.042502447962760925, 0.01722230017185212, -0.09727445244789124, 0.08957175165414807, -0.9912187457084656, 0.003417655825614928, -0.06433374434709549, -0.005012333393096924, OutwardRot
2.325217458361294, -0.09926780907807264, -0.06222350927065358, 0.019709525458991118, 1.581714153289795, -0.12608148157596588, 0.07071603834629062, -0.09891306608915329, 0.06218336522579191, -0.9931512475013733, 0.016347765922546387, 0.04896162822842598, 0.004046022891998293, OutwardRot
2.345262458373327, -0.10158671724933468, -0.02711664858411255, 0.024668430432577233, 1.8671875, -0.10774201899766922, 0.05592510104179382, -0.1013747975230217, 0.027113325893878937, -0.9944787621498108, -0.000492855906486511, 0.05015715956687925, 0.001589417457580567, OutwardRot
2.3653084583347663, -0.10316914635350748, 0.006756020657625902, 0.028798086227505494, 1.4290047883987427, -0.04602545127272606, 0.005948301404714583, -0.10298387706279755, -0.006755969487130642, -0.9946600794792175, -0.011472292244434353, -0.042270537465810776, 0.015396773815155024, OutwardRot
2.385353458346799, -0.10384247898818685, 0.028431409952773094, 0.030977282138831226, 0.7612402439117432, -0.028050292283296595, -0.002581118606030941, -0.10361406207084656, -0.02842758037149906, -0.9942112565040588, -0.007866643369197845, -0.09472612291574478, 0.007532179355621338, OutwardRot
2.4053984583588317, -0.1047107581253398, 0.04015692930632179, 0.03247961246988756, 0.5223612189292908, -0.06134876608848572, 0.03401893004775046, -0.10443525016307831, -0.04014613851904869, -0.993721067905426, 0.010212242603302005, -0.045470938086509705, -0.004157960414886473, OutwardRot
2.4254434583708644, -0.1068067442314629, 0.0536015153304671, 0.03498215640156873, 0.9243307709693909, -0.1333095133304596, 0.06967280060052874, -0.10645068436861038, -0.053575851023197195, -0.9928735494613647, 0.020299568772315986, 0.03969034552574158, -0.00811827182769775, OutwardRot
2.445489458332304, -0.11001113679568653, 0.07698268517079347, 0.038985989925455426, 1.3725950717926025, -0.136379212141037, 0.06901431828737259, -0.10946420580148697, -0.07690667361021042, -0.9910110831260681, 0.007413432002067566, 0.052889324724674204, 0.008802831172943115, OutwardRot
2.4655344583443366, -0.11223810676524931, 0.10332626254150058, 0.042927900258999, 1.1707894802093506, -0.04813815653324127, 0.0260627381503582, -0.11140524595975876, -0.10314249992370605, -0.988408088684082, -0.018355481326580048, -0.023185014724731445, 0.014088630676269531, OutwardRot
2.4855794583563693, -0.11289470283150832, 0.12055231735615429, 0.045194100217984, 0.5554017424583435, -0.0076666660606861115, 0.015334154479205603, -0.11183743178844452, -0.12026053667068481, -0.9864227175712585, -0.011514604091644287, -0.07058114558458328, 0.022265613079071045, OutwardRot
2.505624458368402, -0.11359925508816429, 0.12790228860290787, 0.04656857497477786, 0.28496304154396057, -0.05485198646783831, 0.04147471860051155, -0.11242915689945221, -0.12755385041236877, -0.9854388236999512, 0.0106988325715065, -0.04300887882709503, 0.006175577640533447, OutwardRot
2.5256704583298415, -0.1155055612670163, 0.1360981227653456, 0.04848236706963225, 0.629908561706543, -0.10232660919427872, 0.049593172967433916, -0.11418318003416061, -0.13567836582660675, -0.9841511845588684, 0.014634855091571808, 0.03919705748558046, -0.006403565406799319, OutwardRot
2.545715458341874, -0.1178669461827537, 0.15310153885598168, 0.05141138391788084, 1.0375006198883057, -0.07169599831104279, 0.030365683138370514, -0.116218701004982, -0.1525041162967682, -0.9814457297325134, 7.778406143188477e-06, 0.05957809090614317, -0.0011897683143615727, OutwardRot
2.565760458353907, -0.11916523836228039, 0.1734999368734933, 0.05432548164498818, 0.9526970386505127, -0.02653963305056094, 0.02291130460798741, -0.11709856241941452, -0.17263078689575195, -0.9780012965202332, -0.016446344554424286, -0.006186947226524353, 0.00864094495773315, OutwardRot
2.5858054583659396, -0.12052538410278857, 0.18988944092687934, 0.05714192109268603, 0.7220523357391357, -0.06111381575465202, 0.0533291697502136, -0.11807260662317276, -0.18875032663345337, -0.9749010801315308, 0.00022900104522705086, -0.030075952410697937, 0.011186540126800534, OutwardRot
2.605851458327379, -0.12235067597827375, 0.2033054592599419, 0.059765851891952, 0.680745005607605, -0.06051428243517878, 0.031562283635139465, -0.11953205615282059, -0.20190781354904175, -0.9720829725265503, 0.006723858416080475, 0.0024754703044891357, 0.008688867092132565, OutwardRot
2.6258964583394118, -0.12391923665287617, 0.2149509202848676, 0.06236988807076758, 0.8990762829780579, -0.09297379851341245, 0.04441244900226593, -0.12075785547494888, -0.2132994830608368, -0.9694951772689819, 0.01162700355052948, 0.022122114896774292, 0.006848692893981934, OutwardRot
2.6459414583514445, -0.12667952109042876, 0.23264351627038596, 0.06558445262739998, 1.055355429649353, -0.07610216736793518, 0.009283605962991714, -0.1229373887181282, -0.2305506318807602, -0.9652630686759949, -7.89538025856018e-05, 0.020299792289733887, -0.0007098317146301272, OutwardRot
2.665986458363477, -0.12877293263021972, 0.2525196422644003, 0.06841210285866053, 0.9825595617294312, -0.07247900962829593, 0.009181531146168705, -0.12434469908475876, -0.2498444765806198, -0.9602687954902649, -0.0023337453603744507, -0.0067014992237091064, 0.0024440884590148934, OutwardRot
2.6860324583249167, -0.1308919548959141, 0.2695166293539124, 0.07109100292676149, 0.8682312965393066, -0.10233405232429504, 0.023094072937965386, -0.1258067637681961, -0.26626554131507874, -0.9556543827056885, 0.0014476478099822994, -0.02040129899978637, 0.0037500858306884766, OutwardRot
2.7060774583369493, -0.13365767429918027, 0.28561581190368673, 0.07399121933211247, 0.9533097147941589, -0.11808402091264725, 0.01821139454841613, -0.12786148488521576, -0.28174835443496704, -0.9509307742118835, 0.004509449005126953, 0.004221558570861816, 0.009997546672821041, OutwardRot
2.726122458348982, -0.13631976108963823, 0.30404603280742454, 0.07688227232013671, 1.067288875579834, -0.09257088601589203, -0.005516912322491407, -0.12966471910476685, -0.29938310384750366, -0.9452813267707825, -0.00021807849407196037, 0.01128193736076355, 0.011596024036407474, OutwardRot
2.746168458368629, -0.1389522446123216, 0.3240845208901076, 0.07979676401392298, 1.0788593292236328, -0.09606067091226578, -0.008436383679509163, -0.13129529356956482, -0.31844109296798706, -0.9388060569763184, -0.00034224987030029286, -0.006784677505493164, 0.005593776702880858, OutwardRot
2.7662134583224542, -0.14194372921544968, 0.34452953744283765, 0.08286133555764008, 1.0816738605499268, -0.11118412017822266, -0.006504678167402744, -0.13315413892269135, -0.33775389194488525, -0.9317683577537537, 0.005666971206665039, -0.0019677281379699707, 0.004598557949066162, OutwardRot
2.786258458334487, -0.14473775592044635, 0.3647213685837804, 0.08552920997850035, 1.0784282684326172, -0.10838859528303146, -0.03901708126068114, -0.1347457468509674, -0.3566890060901642, -0.9244546890258789, 0.003291293978691101, -0.00711098313331604, -0.007506370544433594, OutwardRot
2.8063034583465196, -0.147389147624121, 0.38388716350261265, 0.08757950395053365, 0.9893684983253479, -0.09830524027347565, -0.06638509035110474, -0.13616728782653809, -0.37452754378318787, -0.9171627759933472, -0.0006430000066757202, -0.010054945945739746, -0.003872990608215332, OutwardRot
2.826349458366167, -0.1496797442583852, 0.400941848524048, 0.08899500264796191, 0.8539953827857971, -0.09667384624481204, -0.06793524324893951, -0.137295201420784, -0.3902856707572937, -0.9103994369506836, -0.0013613998889923096, -0.013293981552124029, -0.00024509429931640625, OutwardRot
2.846394458319992, -0.1515923140512069, 0.41535710418396343, 0.08975910779506846, 0.7094933986663818, -0.0844458490610123, -0.09140226244926453, -0.13817213475704193, -0.4035167098045349, -0.9044792652130127, -0.000377655029296875, -0.0174579918384552, 0.009856462478637699, OutwardRot
2.8664394583320245, -0.15291577424750222, 0.4273088641080416, 0.08960078068929082, 0.5866090655326843, -0.07967828959226608, -0.10215853899717331, -0.13862451910972595, -0.4144231379032135, -0.8994646668434143, -0.0007187277078628542, -0.01921632885932923, 0.006505072116851807, OutwardRot
2.886484458344057, -0.15405346146562027, 0.43755585687595794, 0.08901878400729404, 0.5080767273902893, -0.06611096858978271, -0.114261694252491, -0.13898880779743195, -0.4237268567085266, -0.8950629234313965, -0.006824165582656863, -0.019083142280578613, 0.014386653900146484, OutwardRot
2.9065304583637044, -0.15473180209286005, 0.4467315111771461, 0.08804871987850454, 0.4540214538574219, -0.04751058295369148, -0.11889658123254776, -0.1389908641576767, -0.4320201277732849, -0.8910893201828003, -0.007096767425537109, -0.0170765221118927, 0.022971034049987786, OutwardRot
2.926575458375737, -0.15488499585433957, 0.4550410282526493, 0.08684127718923261, 0.38688433170318604, -0.020629944279789925, -0.1237415224313736, -0.13856877386569977, -0.439499169588089, -0.8874903917312622, -0.003566831350326538, -0.017364174127578735, 0.028161168098449717, OutwardRot
2.946620458329562, -0.15437786001072423, 0.4617504041654958, 0.08520885186680159, 0.28982770442962646, -0.007230421993881464, -0.14046940207481384, -0.1376621574163437, -0.44551587104797363, -0.8846268653869629, 0.0015842914581298828, -0.0163218379020691, 0.02535867691040039, OutwardRot
2.966665458341595, -0.1537781692777174, 0.4671850017053837, 0.08326006726847215, 0.24061383306980133, 0.009407449513673782, -0.132713183760643, -0.1367587447166443, -0.4503747224807739, -0.8823035955429077, 0.001230195164680481, -0.0274541974067688, 0.019968390464782715, OutwardRot
2.986711458361242, -0.15323067814915278, 0.47186323281927156, 0.0814258689298995, 0.19932498037815094, 0.006702703423798082, -0.12440628558397293, -0.13595259189605713, -0.4545466899871826, -0.8802863955497742, 0.0014768987894058228, -0.03478735685348512, 0.01427382230758667, OutwardRot
3.0067564583732747, -0.1526927251612005, 0.4760470018119629, 0.07961896915225763, 0.15504059195518494, 0.0054628886282444, -0.10953184217214584, -0.13518857955932617, -0.45826929807662964, -0.8784721493721008, 8.727610111236572e-05, -0.03465059399604799, 0.01445847749710083, OutwardRot
3.0268014583270997, -0.15200901475978618, 0.4789647093775922, 0.07790791087622867, 0.08206225931644442, 0.004318338818848133, -0.08937936276197433, -0.134384885430336, -0.46086063981056213, -0.877238929271698, -0.004607409238815306, -0.04486134648323058, 0.01790970563888549, OutwardRot
3.046847458346747, -0.15138496252247724, 0.4810933553021905, 0.07646452949324398, 0.05190476030111315, 0.0066381227225065205, -0.06987912207841873, -0.13368918001651764, -0.4627487063407898, -0.8763508796691895, -0.003594130277633667, -0.04037931561470033, 0.024513721466064446, OutwardRot
3.0668924583587795, -0.15064268653046492, 0.4828124252248687, 0.07524855355035664, 0.02001873217523098, 0.019948486238718033, -0.051894113421440145, -0.1329190582036972, -0.4642719626426697, -0.8756620287895203, -0.0023653507232666016, -0.04401353001594542, 0.031301677227020264, OutwardRot
3.0869374583708122, -0.14988992356041436, 0.48422793634598427, 0.07445914652701896, 0.027142686769366264, 0.028472771868109703, -0.03770368546247484, -0.13216158747673035, -0.46552520990371704, -0.8751111626625061, 0.0035605281591415405, -0.03372707962989807, 0.025410234928131104, OutwardRot
3.1069824583246373, -0.14908571438045917, 0.4860344012168766, 0.07376760348238912, 0.020004617050290108, 0.04338080435991286, -0.04222767427563667, -0.1313326507806778, -0.46712321043014526, -0.8743841052055359, 0.004791527986526491, -0.02221083641052246, 0.01880854368209838, OutwardRot
3.1270284583442844, -0.14804865521111868, 0.4869085952689387, 0.07299207181479998, -0.07459245622158053, 0.057713519781827906, -0.0320630744099617, -0.1303655058145523, -0.4678959846496582, -0.8741156458854675, 0.002298504114151001, -0.02914375066757202, 0.02363646030426026, OutwardRot
3.1470717083429918, -0.14695758565949732, 0.4865019228627607, 0.07222806550830682, -0.10928080230951309, 0.05084456130862236, -0.026965517550706874, -0.1294395625591278, -0.4675365388393402, -0.8744454979896545, -0.0001380592584609986, -0.03176149725914, 0.02410370111465454, OutwardRot
3.1671167083550245, -0.14571680035969778, 0.48595319316052105, 0.07150673390110066, -0.07359710335731506, 0.051272567361593246, -0.016469694674015045, -0.12839169800281525, -0.4670514166355133, -0.8748591542243958, 0.003986820578575134, -0.01927661895751953, 0.009456932544708255, OutwardRot
3.187161708367057, -0.14453586827435516, 0.485780236567386, 0.07102216993405952, -0.040266446769237504, 0.04587770998477936, -0.012271982617676258, -0.12737008929252625, -0.46689847111701965, -0.8750901222229004, 0.002354845404624939, -0.01825466752052307, -0.0030685067176818856, OutwardRot
3.2072077083284967, -0.14369597645579044, 0.48589672740981127, 0.0707920552040575, -0.05714929103851316, 0.03681710362434386, -0.005815947894006966, -0.12662726640701294, -0.4670014977455139, -0.8751429319381714, 0.0015052258968353271, -0.0174344778060913, -0.0015202760696411128, OutwardRot
3.2272527083405294, -0.14325054609730747, 0.4858070405754002, 0.07057502045904275, -0.06826426088809967, 0.014664698392152786, -0.003709348849952221, -0.12624342739582062, -0.46692216396331787, -0.875240683555603, 0.0021589696407318124, -0.01713234186172486, 0.005794882774353027, OutwardRot
3.247297708352562, -0.14275320539007197, 0.48475755084007854, 0.0700292646708435, -0.1096191555261612, 0.015362409874796873, -0.013964954763650894, -0.1258777678012848, -0.46599385142326355, -0.8757879137992859, -0.0018077641725540161, -0.017312973737716675, 0.005975902080535889, OutwardRot
0.0, -0.09725694055435113, 0.415503993540811, 0.02051657624143375, 0.01342461071908474, -0.02187457308173179, -0.015399598516523838, -0.08884143084287643, -0.40365108847618103, -0.9105893969535828, -0.010890036821365353, -0.01494339108467102, 0.03142380714416504, OutwardRot
0.020045000012032688, -0.0973336436588895, 0.41598739606133284, 0.020230005818557155, 0.02540830336511135, 0.006258526816964152, -0.010632806457579136, -0.08889230340719223, -0.40409332513809204, -0.9103882312774658, -0.015294723212718964, -0.01169353723526001, 0.026675522327423096, OutwardRot
0.0400899999658577, -0.09691023384219263, 0.41606521382359984, 0.02015159779684891, -0.020108314231038094, 0.025868447497487068, 0.0029389280825853356, -0.08850377798080447, -0.40416449308395386, -0.9103944897651672, -0.01595790684223175, -0.022669732570648193, 0.01911342144012451, OutwardRot
0.060135999985504916, -0.09655449443008311, 0.4153953480622858, 0.020184457681791414, -0.03855496644973755, 0.013769630342721944, 0.007249710150063035, -0.08820599317550662, -0.40355169773101807, -0.9106951951980591, -0.009694419801235199, -0.014920711517333984, 0.007374942302703857, OutwardRot
0.08014999999431893, -0.09646974219846394, 0.4150592915935297, 0.020377356891041934, 0.006979763507843018, 0.005128472112119198, 0.015727616846561432, -0.08814186602830887, -0.4032441973686218, -0.9108375906944275, -0.006233766674995422, -0.0003661513328552246, -0.005208492279052733, OutwardRot
0.10019500000635162, -0.09658437249622986, 0.415370334947599, 0.0207041174655133, 0.009828677400946617, -0.0014263475313782696, 0.008698356337845325, -0.08823417872190475, -0.4035288095474243, -0.9107025861740112, -0.006263524293899536, 0.0019631385803222656, -0.0028715729713439933, OutwardRot
0.12023999996017665, -0.09677054169012678, 0.41504276961024295, 0.020769879124641826, -0.03296432644128798, -0.01676973141729831, 0.002931167371571063, -0.08841648697853088, -0.4032290577888489, -0.9108176827430725, -0.00359402596950531, -0.003097355365753174, 0.0008140802383422852, OutwardRot
0.14028499997220933, -0.09724099391735684, 0.4146780218759858, 0.020802855922255517, 0.012704227119684225, -0.024784039705991738, -0.004322674125432966, -0.08885924518108365, -0.4028952717781067, -0.9109222888946533, -0.0005267560482025146, 0.01004239916801453, 0.0023224949836730957, OutwardRot
0.16033099999185652, -0.10077606786026272, 0.41380884155793574, 0.021965976390406615, 0.04528267681598663, -0.008857879787683487, -0.012250448577106002, -0.09211406111717221, -0.402099609375, -0.9109505414962769, -0.003695890307426454, 0.006774783134460452, 0.008057534694671627, OutwardRot
0.1803760000038892, -0.10214686772839465, 0.41261117015186194, 0.02235412610704628, 0.01767621375620365, -0.010769249871373177, -0.005480845458805559, -0.09341174364089963, -0.4010027348995209, -0.911301851272583, -0.004763320088386537, -0.014570504426956177, 0.015137970447540288, OutwardRot
0.20042099995771423, -0.1018027649781064, 0.41493425525726674, 0.021989864274327423, 0.00529691204428673, 0.0025828699581325054, -0.012839463539421558, -0.09300323575735092, -0.4031297564506531, -0.9104047417640686, -0.0030966401100158683, -0.008277803659439083, 0.010502457618713379, OutwardRot
0.2204669999773614, -0.1008702041233462, 0.4136052837110864, 0.02155366844006097, 0.014477226883172989, -0.004744379781186581, 1.8315389752388e-05, -0.09220805019140244, -0.40191322565078735, -0.9110233187675476, -0.005036227405071257, -0.013507425785064692, 0.013135194778442388, OutwardRot
0.2405119999893941, -0.10143972358741138, 0.4124629775121566, 0.02183117404471484, 0.0101795494556427, 0.0008911925833672285, 0.0038175052031874657, -0.09277331084012985, -0.40086695551872253, -0.9114267826080322, -0.007446430623531339, -0.015484452247619629, 0.011249840259552005, OutwardRot
0.2605570000014268, -0.1026819802118082, 0.41514187983397866, 0.02252558427476504, -0.004460511729121208, 0.0032892362214624895, 0.006099035032093527, -0.0937950536608696, -0.403319776058197, -0.9102393388748169, -0.0026405081152915963, -0.014969527721405024, 0.00932997465133667, OutwardRot
0.28060087497578934, -0.10343370006055352, 0.4168868323226814, 0.022887384958419445, -0.020099259912967682, -0.0008978815749287605, 0.0033501591533422483, -0.09440647065639496, -0.40491586923599243, -0.9094672203063965, -0.001952804625034333, -0.007941275835037235, 0.007077693939208984, OutwardRot
0.3006468749954365, -0.10395213000700408, 0.418337446803912, 0.023173174781107246, 5.209818482398987e-06, -0.005194892175495626, 0.004304636269807817, -0.0948169007897377, -0.40624183416366577, -0.9088329672813416, -0.0007336586713790891, -0.0006491541862487791, 0.003513813018798828, OutwardRot
0.3206918750074692, -0.10469320295039532, 0.41988014823033715, 0.02345535524019516, 0.01765118166804313, 0.001993912039324642, -0.006597014144062996, -0.09542477875947952, -0.40765100717544556, -0.90813809633255, 0.00033199042081832886, 0.0046510398387908936, 0.003185153007507323, OutwardRot
0.34073687496129423, -0.10502240633095267, 0.4213110515884676, 0.023460296199207125, -0.006410343572497365, -0.0013490585843101144, -0.006354172714054587, -0.09566248953342438, -0.40895721316337585, -0.9075255990028381, -0.0009866952896118164, -0.0027708113193511963, 0.004480004310607912, OutwardRot
0.3607828749809414, -0.10513364459697819, 0.4217137810893382, 0.023294863296203068, -0.022542841732501984, 0.0011722131166607141, -0.010526622645556927, -0.09574615210294724, -0.40932467579841614, -0.9073510766029358, -0.0035275518894195557, 0.0012893080711364746, 0.004305481910705566, OutwardRot
0.3808278749929741, -0.10509983381679827, 0.4213313637776072, 0.023086937596373196, -0.01990458369255066, 0.0012263697572052483, -0.01079936791211367, -0.09573188424110413, -0.408975750207901, -0.9075099229812622, 0.00028815120458602905, -0.0004786550998687744, 0.005822360515594482, OutwardRot
0.4008728750050068, -0.10489257303379822, 0.420667735687077, 0.022760484631415268, -0.012700332328677172, 0.0017775499727576978, -0.011405998840928081, -0.09557218849658963, -0.40837007761001587, -0.907799482345581, -0.0007107779383659363, 0.0008687674999237061, 0.0038536190986633314, OutwardRot
0.4209188749664463, -0.10492258532057615, 0.42086448556950906, 0.022615024618661925, 0.002124954015016556, 0.002819225424900651, -0.009832488372921944, -0.09559101611375809, -0.4085496664047241, -0.907716691493988, -0.0009666159749031067, 0.0008957386016845703, 0.0025501251220703125, OutwardRot
0.440963874978479, -0.1050435852082712, 0.42109450393194503, 0.022501263010322913, -0.0015500765293836594, -1.511978916823864e-05, -0.0026505514979362496, -0.09569099545478821, -0.40875959396362305, -0.907611608505249, -0.0008819028735160828, -0.002556443214416504, 0.005725681781768797, OutwardRot
0.4610088749905117, -0.10513524341960617, 0.42092100434274976, 0.0224704393629679, -0.017678312957286835, -0.0042765382677316666, -0.0031117741018533715, -0.09578162431716916, -0.40860122442245483, -0.9076733589172363, -0.0029580146074295044, -0.004225403070449829, 0.004292070865631102, OutwardRot
0.4810538750025444, -0.10522935396513254, 0.42080355033993944, 0.02237115301987777, -0.007118480280041692, -0.001366026815958321, -0.006329861935228112, -0.09587208926677701, -0.4084940254688263, -0.9077120423316956, 0.0014811977744102478, 0.0029916167259216317, 0.003064274787902832, OutwardRot
0.5010998749639839, -0.1051606039686266, 0.4207299231368925, 0.022175430797493696, -0.015354038216173649, -0.0012129709357395768, -0.010580343194305897, -0.0958128347992897, -0.40842682123184204, -0.9077485799789429, -0.0028657689690589905, 0.0005135238170623779, 0.003848433494567871, OutwardRot
0.5211448749760166, -0.10519184476367786, 0.4206305713626422, 0.02204943982833695, -0.01691158860921859, 0.0029389159753918648, -0.0030839238315820685, -0.09584545344114304, -0.4083361327648163, -0.9077858924865723, -0.002085469663143159, 0.0003618001937866211, 0.004572451114654541, OutwardRot
0.5411898749880493, -0.10511545035668401, 0.42074070343889647, 0.021944588337624457, -0.00041716732084751145, 0.010273433290421966, -0.0026543186977505684, -0.09577138721942904, -0.40843665599823, -0.9077485203742981, 0.00038868188858032227, 0.005680829286575317, 0.0032380223274230957, OutwardRot
0.5612358750076964, -0.10504387295872107, 0.4209739676402667, 0.02186790198052598, 0.009617889299988747, 0.005194936878979206, -0.010099831968545914, -0.09569641947746277, -0.4086495637893677, -0.9076606035232544, 0.0020684748888015747, -0.0006828010082244873, 0.007269978523254397, OutwardRot
0.5812808749615215, -0.10486713971628973, 0.4208811201993248, 0.021636973072536002, -0.013891963288187986, 0.005568616092205049, -0.007063789758831263, -0.09553997218608853, -0.40856483578681946, -0.9077152013778687, 0.0007218420505523684, -0.0032089650630950928, 0.002350270748138427, OutwardRot
0.6013258749735542, -0.10498206000620751, 0.42065581624676945, 0.021664076964245313, -0.014961489476263528, 0.002119632903486491, -0.00040474627166986465, -0.09565393626689908, -0.408359169960022, -0.907795786857605, 0.0008815750479698181, -0.00100371241569519, 0.0018357038497924805, OutwardRot
0.6213708749855869, -0.10502479283464804, 0.4205448333103161, 0.021625337916073194, 0.004116065800189972, -0.0019784020259976387, -0.0005277460440993309, -0.09569747745990756, -0.4082578718662262, -0.9078367352485657, 0.001413397490978241, 0.0019314885139465332, 0.0014494657516479497, OutwardRot
0.641416875005234, -0.10498413794848634, 0.42059855892271386, 0.021692203142654104, -0.01217702217400074, 0.0003216369077563285, 0.008274799212813377, -0.09565827250480652, -0.40830692648887634, -0.9078187942504883, 0.0003671124577522277, -0.003665238618850708, 0.0009585022926330566, OutwardRot
0.6614618749590591, -0.10503949040854207, 0.4203148346038152, 0.02170726655764559, -0.026914022862911224, -0.0048134890384972095, 0.0005850363522768023, -0.09572066366672516, -0.4080479145050049, -0.9079286456108093, 0.002489440143108369, -0.0027798116207122803, 0.0043795108795166016, OutwardRot
0.6815068749710917, -0.10518533131262178, 0.42010276331106805, 0.02177987851462766, -0.004767840728163719, -0.010261992923915386, 0.007425290532410142, -0.09586215764284134, -0.407854288816452, -0.9080007672309875, 6.745755672454834e-05, 0.0008870065212249753, 0.0016134381294250488, OutwardRot
0.7015528749907389, -0.10522102824099547, 0.4201572858205568, 0.021820570379295967, -0.002215865999460221, 0.003524106694385408, 0.0021707210689783088, -0.09589223563671115, -0.4079040586948395, -0.9079751968383789, -0.0033814609050750732, 0.0054686665534973145, 0.00434976816177368, OutwardRot
0.7215978750027716, -0.10507686040950796, 0.41971861528203674, 0.02180129946322496, -0.054753378033638, 0.0034391521476209177, 0.006982519291341307, -0.0957800894975662, -0.40750351548194885, -0.9081668853759766, -0.002440743148326873, -0.0061470866203308105, 0.012445509433746338, OutwardRot
0.7416428749565966, -0.10479505355230123, 0.4186444690865998, 0.021666552709606175, -0.06491599977016449, 0.014117172919213772, -0.003626639023423195, -0.09556989371776578, -0.40652236342430115, -0.9086286425590515, -0.002071112394332885, -0.0006432533264160156, 0.007169961929321289, OutwardRot
0.7616888749762438, -0.10445587438070365, 0.4173490727241215, 0.02152593713414077, -0.07975167036056516, 0.011643705889582634, 0.003411106765270233, -0.09531652927398684, -0.40533849596977234, -0.9091839790344238, -0.0022939592599868774, -0.002147585153579711, 0.0073590874671936035, OutwardRot
0.7817338749882765, -0.10439574673230219, 0.41583606643719323, 0.021692808262472267, -0.06044148653745653, 0.006971132010221481, 0.021884199231863022, -0.09532565623521802, -0.4039548933506012, -0.9097986221313477, -5.704164505004883e-05, -0.005011260509490967, 0.0013361573219299316, OutwardRot
0.8017788750003092, -0.10439784813139147, 0.41518947542249784, 0.02199442936362659, -0.05328144878149035, 0.023445695638656616, 0.013503612019121647, -0.0953547656536102, -0.40336331725120544, -0.9100579619407654, 0.0007349997758865359, 0.0024385452270507804, 0.0023584365844726554, OutwardRot
0.8218238750123419, -0.10425944171598649, 0.4137037246904675, 0.022322364312928306, -0.13843561708927155, 0.019661398604512215, 0.02836344391107558, -0.09529107064008716, -0.40200334787368774, -0.9106661677360535, -0.002456746995449067, -0.01564505696296692, 0.014456510543823247, OutwardRot
0.8418698749737814, -0.10379062206966717, 0.41021989118422114, 0.022485460528505512, -0.23138153553009033, 0.04098540544509889, 0.022061411291360855, -0.0950086489319801, -0.3988109827041626, -0.912098228931427, -0.0045397132635116594, -0.014275044202804565, 0.01994740962982177, OutwardRot
0.8619148749858141, -0.10279964477614888, 0.4049949650806475, 0.022475473753225977, -0.3283592462539673, 0.06567781418561938, 0.03333842009305954, -0.09431727975606918, -0.3940141201019287, -0.9142522215843201, -0.005109012126922607, -0.014585822820663452, 0.018836021423339844, OutwardRot
0.8819598749978468, -0.10125931127771193, 0.39755454931062467, 0.02240634972846766, -0.4606086015701294, 0.088416188955307, 0.03560320660471916, -0.0932026877999306, -0.38716477155685425, -0.9172877073287964, -0.004194177687168121, -0.023846060037612915, 0.017049729824066162, OutwardRot
0.9020058749592863, -0.09881826934578081, 0.3867008990895429, 0.02161756793332246, -0.7900210022926331, 0.15252527594566345, -0.0004187095910310745, -0.09137248247861862, -0.3771349787712097, -0.9216399788856506, -0.007870703935623172, -0.03747692704200746, 0.01931154727935791, OutwardRot
0.922050874971319, -0.09313384302469656, 0.36395662259642997, 0.017684425698830927, -1.6312880516052246, 0.2999933362007141, -0.14512285590171814, -0.08690740913152692, -0.3559744656085968, -0.9304457306861877, -0.030493736267089844, -0.11392006278038025, 0.02695763111114502, OutwardRot
0.9420958749833517, -0.0830941509700501, 0.31962195566909135, 0.009567880209950523, -2.844067096710205, 0.40524810552597046, -0.21871334314346313, -0.07879503816366196, -0.31420767307281494, -0.9460786581039429, -0.02003615349531173, -0.12062212824821472, 0.049411237239837646, OutwardRot
0.9621418750029989, -0.07269480980940492, 0.2546490778436042, 1.4099896662302098e-05, -3.5466058254241943, 0.34557411074638367, -0.18539799749851227, -0.07028858363628387, -0.2519058287143707, -0.9651958346366882, 0.01451769471168518, -0.12535259127616882, 0.024460971355438232, OutwardRot
0.9821868749568239, -0.06466638183623517, 0.1847613058052523, -0.008887435252789228, -3.3492591381073, 0.25872913002967834, -0.20292620360851288, -0.06352147459983826, -0.18371190130710602, -0.9809255599975586, 0.02416905015707016, -0.0005075335502624512, 0.006453573703765869, OutwardRot
1.0022318749688566, -0.05890266662487377, 0.12407646675478913, -0.016265080215112325, -2.782897472381592, 0.2064187377691269, -0.14159926772117615, -0.05841605365276339, -0.12375835329294205, -0.9905914664268494, 0.013173725455999374, 0.0446261838078499, -0.0028167366981506356, OutwardRot
1.0222778749885038, -0.054056381238393514, 0.06983812130475384, -0.022096122386742974, -2.776787281036377, 0.22472041845321655, -0.1455506682395935, -0.05389834940433502, -0.06978136301040652, -0.9961051940917969, -0.008250713348388672, -0.030514732003211975, -0.008823394775390625, OutwardRot
1.0423228750005364, -0.04945682968686514, 0.00960657798880791, -0.028711755096511315, -3.314378499984741, 0.19949281215667725, -0.2002612054347992, -0.04943438991904257, -0.009606430307030678, -0.9987311959266663, 0.0018269531428813934, -0.08901119977235794, 0.02311474084854126, OutwardRot
1.0623678750125691, -0.046122484786567684, -0.06286825886645195, -0.036542152319387025, -3.931952953338623, 0.15033407509326935, -0.22898884117603302, -0.04601505026221275, 0.06282685697078705, -0.9969630837440491, 0.006143819540739058, -0.10628395527601242, 0.026641428470611572, OutwardRot
1.0824128749663942, -0.044229353755096845, -0.14423511785004267, -0.044768372066024985, -4.122798442840576, 0.1225019171833992, -0.2055138796567917, -0.04375581443309784, 0.14373552799224854, -0.9886483550071716, 0.005898747593164442, -0.0648476630449295, 0.013062417507171636, OutwardRot
1.1024588749860413, -0.04348602557994395, -0.22383906525817132, -0.05160246503987703, -3.719592571258545, 0.06324046850204465, -0.12069444358348846, -0.04238779470324516, 0.22197453677654266, -0.9741306900978088, 0.007872398942708973, -0.008855089545249939, -0.0022944808006286612, OutwardRot
1.122503874998074, -0.0445383564862913, -0.29231248691831563, -0.05721300699160421, -3.1876606941223145, -0.03072534315288067, -0.1360713094472885, -0.042634941637516036, 0.28816738724708557, -0.9566304683685303, 0.014421429485082621, 0.03780606389045714, -0.005695641040802002, OutwardRot
1.1425488750101067, -0.04747724729854373, -0.35426353753031264, -0.06324616236723452, -3.1245968341827393, -0.07134009152650833, -0.14320680499076843, -0.04451229050755502, 0.34689971804618835, -0.9368453621864319, 0.008104804903268814, -0.02231481671333313, 0.0010543465614318848, OutwardRot
1.1625948749715462, -0.05141378910991913, -0.41969755255744984, -0.06962382751136473, -3.4435787200927734, -0.07280037552118301, -0.12620045244693756, -0.04693102091550827, 0.4074842631816864, -0.9120055437088013, -0.0008900351822376254, -0.09786820411682129, 0.005908071994781494, OutwardRot
1.182639874983579, -0.05588814022767356, -0.49113607620015154, -0.07663091342519228, -3.603262186050415, -0.05794593319296839, -0.1183481216430664, -0.04925637692213057, 0.47162798047065735, -0.8804208636283875, -0.0046681910753250105, -0.08345964550971988, 0.017658352851867676, OutwardRot
1.2026848749956116, -0.06017745758177486, -0.5595105744668023, -0.08343652947236202, -3.1574647426605225, -0.04838904365897177, -0.06966979801654818, -0.050970524549484274, 0.5307714939117432, -0.8459809422492981, -0.0048766545951366425, -2.5033950805664062e-05, 0.0005829334259033201, OutwardRot
1.2227308749570511, -0.06511433073675735, -0.615459263379433, -0.08897631119304623, -2.437112331390381, -0.144974023103714, -0.05136760696768761, -0.05312883481383324, 0.5773335695266724, -0.8147780299186707, 0.010053262114524838, 0.04041844606399536, 0.004978835582733154, OutwardRot
1.2427758749690838, -0.07102453071641134, -0.6578140412114116, -0.09330690220286375, -1.8428808450698853, -0.17619584500789642, 0.0022331904619932183, -0.0561566464602947, 0.6113885045051575, -0.7893355488777161, 0.007679462432861328, 0.015259444713592524, 0.007520914077758789, OutwardRot
1.2628208749811165, -0.07591847823593004, -0.6907916815598064, -0.09584748755914012, -1.4935483932495117, -0.15076181292533875, 0.030309071764349937, -0.05845735967159271, 0.6371475458145142, -0.7685218453407288, -0.008132006973028183, -0.0012375116348266606, 0.014630794525146484, OutwardRot
1.2828685833374038, -0.07964171040265074, -0.7187467298181179, -0.0977980024997359, -1.3032842874526978, -0.09516388922929764, 0.04924018681049347, -0.05987751483917236, 0.658441960811615, -0.7502458691596985, -0.011854067444801334, -0.00858539342880249, 0.025377094745635986, OutwardRot
1.3029135832912289, -0.08178308739109988, -0.7420384160815539, -0.09859134987157131, -0.9959263801574707, -0.07203024625778195, 0.07382618635892868, -0.06021453067660334, 0.6757918000221252, -0.7346289157867432, -0.003201011568307878, 8.100271224975586e-05, 0.027048349380493164, OutwardRot
1.3229585833032615, -0.08305636709259272, -0.7574526868366147, -0.09830622039404613, -0.5040696859359741, -0.07684240490198135, 0.07262513786554337, -0.06027844920754433, 0.6870728135108948, -0.7240839004516602, -0.0030607953667640686, 0.04389947652816774, 0.009926795959472656, OutwardRot
1.3430045833229087, -0.08326589489004685, -0.7620866809302816, -0.09624281535352089, 0.0420922115445137, -0.08353234082460403, 0.11358873546123505, -0.060164716094732285, 0.6904324293136597, -0.7208907008171082, -0.005890592932701111, 0.05454742908477783, 0.009037613868713379, OutwardRot
1.3630495833349414, -0.08233307779286084, -0.7574644204555894, -0.09252404211593532, 0.40618160367012024, -0.07616088539361954, 0.10792149603366852, -0.05975405126810072, 0.6870813369750977, -0.7241193056106567, -0.007048942148685455, 0.04592037200927733, 0.01818668842315673, OutwardRot
1.383094583346974, -0.08096081869348051, -0.7476964639006217, -0.08842461421143967, 0.5385888814926147, -0.06681919842958448, 0.11021032929420471, -0.05930026620626452, 0.6799514889717102, -0.7308553457260132, -0.006083656102418898, 0.03341221809387207, 0.028752684593200694, OutwardRot
1.4031395833007991, -0.07952855259316724, -0.7376454217614276, -0.08479700873186286, 0.4527890682220459, -0.03562007844448088, 0.07339498400688171, -0.05879342183470726, 0.6725472807884216, -0.7377151250839233, -0.005232471972703934, 0.005309164524078369, 0.02454984188079834, OutwardRot
1.4231855833204463, -0.07795960776039013, -0.7285599858057038, -0.08186066862186023, 0.6018784046173096, -7.573980838060379e-07, 0.08463066816329959, -0.058109402656555176, 0.6657958626747131, -0.7438676953315735, -0.0024527423083782196, 0.01682126522064209, 0.011155903339385986, OutwardRot
1.443230583332479, -0.0752309962406923, -0.7088666525870279, -0.07717356597253147, 1.493716835975647, -0.05711888521909716, 0.09799084067344666, -0.05705400928854942, 0.6509738564491272, -0.7569530606269836, 0.004579018801450729, 0.1231808066368103, 0.009485960006713867, OutwardRot
1.4632755833445117, -0.07322864093746946, -0.6661359206555287, -0.07065130109686896, 2.755643129348755, -0.1571156531572342, 0.10317414999008179, -0.05752204358577726, 0.6179525852203369, -0.7841083407402039, 0.014263361692428589, 0.1945473551750183, 0.009282231330871582, OutwardRot
1.4833215833059512, -0.071425454389283, -0.6025093757517307, -0.061670423672600894, 3.520287275314331, -0.17921483516693115, 0.14587287604808807, -0.05879856273531914, 0.5667117834091187, -0.8218153715133667, 0.005987878888845442, 0.13148462772369385, 0.0494154691696167, OutwardRot
1.503366583317984, -0.06970559972997595, -0.5300589956352268, -0.0520955449769153, 3.7314095497131348, -0.14835795760154724, 0.14207684993743896, -0.060091715306043625, 0.5055842399597168, -0.8606820702552795, -0.007184300571680069, 0.04637187719345093, 0.0726418495178223, OutwardRot
1.5234115833300166, -0.06800377486420123, -0.45344496751301117, -0.04286881982560155, 3.985628843307495, -0.11936711519956589, 0.13914036750793457, -0.061084434390068075, 0.43806496262550354, -0.8968655467033386, -0.01121172308921814, 0.0669856667518616, 0.07881134748458862, OutwardRot
1.543457583291456, -0.06658201958988377, -0.36761992442979596, -0.033375168705435165, 4.591099739074707, -0.14375217258930206, 0.16139617562294006, -0.062087468802928945, 0.35939541459083557, -0.9311176538467407, 0.0003198757767677307, 0.12618499994277954, 0.07549631595611572, OutwardRot
1.5635025833034888, -0.06681484647530682, -0.2692341105191615, -0.022788104138698584, 5.250045299530029, -0.19011543691158295, 0.19662165641784668, -0.06435992568731308, 0.2659932076931, -0.9618239998817444, 0.0003645494580268861, 0.12698158621788025, 0.07208400964736941, OutwardRot
1.5835475833155215, -0.06848799828721892, -0.16271110955193377, -0.01107008347797047, 5.371982574462891, -0.20611022412776947, 0.20792387425899506, -0.06753056496381762, 0.1619940996170044, -0.9844782948493958, -0.012059293687343594, 0.07741624116897583, 0.10912734270095825, OutwardRot
1.6035935833351687, -0.0708747831804156, -0.059605842015546175, -0.00018305395174704844, 4.814503192901611, -0.15459389984607697, 0.15067976713180542, -0.07068970054388046, 0.0595705546438694, -0.9957180023193359, -0.01750611513853073, 0.006972957402467728, 0.10033226013183594, OutwardRot
1.6236385833472013, -0.07323900647947416, 0.026276291921272493, 0.00883387187427798, 3.729801893234253, -0.09664464741945267, 0.11275388300418854, -0.07314828783273697, -0.026273269206285487, -0.9969749450683594, -0.012636646628379822, -0.07417541742324826, 0.041011810302734375, OutwardRot
1.6436835833010264, -0.0758462968145249, 0.09058785551911834, 0.014974608496652015, 2.8505022525787354, -0.15359610319137573, 0.017532670870423317, -0.07546290755271912, -0.09046401083469391, -0.9930365681648254, 0.006111688911914827, -0.07414788752794266, -0.0004784464836120607, OutwardRot
1.6637295833206736, -0.08112454519394241, 0.14655713729903058, 0.019710917022105208, 2.860185146331787, -0.3336755633354187, 0.030412137508392334, -0.08016686886548996, -0.14603304862976074, -0.9860261678695679, 0.029690779745578776, 0.03993861377239226, -0.045559465885162354, OutwardRot
1.6837745833327062, -0.09013957185720042, 0.20728595871445965, 0.02547238557573564, 3.165726661682129, -0.43721580505371094, -0.0009762607514858246, -0.08809055387973785, -0.2058047205209732, -0.9746201634407043, 0.02288973331451416, 0.07515887916088101, -0.03929579257965089, OutwardRot
1.703819583344739, -0.09986521258959066, 0.2678803330687252, 0.03070386316887782, 2.7575876712799072, -0.3969378173351288, -0.06290308386087415, -0.09614343941211698, -0.2646879553794861, -0.959529459476471, -0.009783096611499783, -0.021704345941543586, -0.012943685054779053, OutwardRot
1.723864583298564, -0.10788409669300407, 0.31286862667333865, 0.03404028534573962, 1.7279235124588013, -0.3239125609397888, -0.06606554985046384, -0.10244781523942947, -0.30778926610946655, -0.9459229707717896, -0.01937837153673172, -0.10718885064125061, -0.007705569267272947, OutwardRot
1.7439105833182111, -0.11564844315866697, 0.3397739400830236, 0.03621112615908794, 1.086325764656067, -0.3645480275154114, -0.05032056570053103, -0.10879393666982651, -0.3332739770412445, -0.9365320801734924, 0.01608151197433471, -0.06554508209228513, 0.014062047004699707, OutwardRot
